subj_idx,stim,rt,accuracy,response,trialno,stimulus,novelty,early,late
0,1,1.021,1,0,2,0,1,1,0
0,1,0.935,1,1,3,1,0,1,0
0,1,0.767,1,0,4,0,1,1,0
0,1,0.92,1,1,5,1,0,1,1
0,1,0.825,1,0,6,0,1,1,1
0,1,0.928,1,1,7,1,0,1,1
0,1,0.914,1,0,8,0,1,1,1
0,1,0.957,1,1,9,1,0,0,1
0,1,1.083,1,0,10,0,1,0,1
0,2,0.672,1,1,3,1,0,1,0
0,2,1.022,0,0,5,1,0,1,1
0,2,0.461,1,0,6,0,1,1,1
0,2,1.193,0,1,8,0,1,1,1
0,3,1.05,1,1,4,1,0,1,0
0,3,1.087,0,0,5,1,0,1,1
0,3,1.116,1,0,6,0,1,1,1
0,3,0.897,1,1,7,1,0,1,1
0,3,0.951,0,0,8,1,0,1,1
0,3,0.867,1,0,9,0,0,0,1
0,3,1.084,1,0,10,0,1,0,1
0,2,0.304,0,0,3,1,0,1,0
0,2,0.871,1,0,4,0,1,1,0
0,2,0.923,1,1,5,1,0,1,1
0,2,0.982,1,0,6,0,1,1,1
0,2,1.437,1,1,7,1,0,1,1
0,2,0.708,1,0,8,0,1,1,1
0,2,1.322,0,1,10,0,1,0,1
0,1,0.291,1,0,2,0,1,1,0
0,1,0.941,1,1,3,1,0,1,0
0,1,1.001,1,0,4,0,1,1,0
0,1,0.835,1,1,5,1,0,1,1
0,1,0.853,1,0,6,0,1,1,1
0,1,0.641,1,1,7,1,0,1,1
0,1,0.676,1,0,8,0,1,1,1
0,1,0.807,1,0,9,0,1,0,1
0,1,0.894,1,1,10,1,0,0,1
0,3,0.751,1,1,4,1,0,1,0
0,3,1.061,1,0,5,0,1,1,1
0,3,1.228,1,1,6,1,0,1,1
0,3,1.439,1,0,7,0,1,1,1
0,1,1.142,0,0,2,1,0,1,0
0,1,0.948,0,0,3,1,0,1,0
0,1,0.807,0,1,4,0,1,1,0
0,1,0.663,1,0,7,0,1,1,1
0,1,1.059,1,0,8,0,1,1,1
0,1,1.227,1,1,9,1,0,0,1
0,1,1.02,1,0,10,0,1,0,1
0,3,1.262,1,0,7,0,1,1,1
0,3,1.237,1,0,8,0,1,1,1
0,3,0.711,1,1,9,1,0,0,1
0,3,0.727,0,0,10,1,0,0,1
0,2,0.665,1,1,4,1,0,1,0
0,2,0.985,1,0,5,0,1,1,1
0,2,0.84,1,0,6,0,1,1,1
0,2,1.347,1,1,7,1,0,1,1
0,2,0.829,0,0,9,1,0,0,1
0,2,0.754,1,0,10,0,1,0,1
0,2,0.635,1,1,3,1,0,1,0
0,2,0.702,1,0,4,0,1,1,0
0,2,0.74,1,0,5,0,1,1,1
0,2,0.921,1,1,6,1,0,1,1
0,2,0.829,1,0,8,0,1,1,1
0,2,0.83,1,0,9,0,1,0,1
0,2,0.788,1,1,10,1,0,0,1
0,3,0.628,1,1,4,1,0,1,0
0,3,0.867,1,0,6,0,1,1,1
0,3,1.024,1,1,7,1,0,1,1
0,3,0.828,1,0,8,0,1,1,1
0,3,1.315,1,0,9,0,1,0,1
0,3,1.176,1,1,10,1,0,0,1
0,2,1.486,1,0,3,0,1,1,0
0,2,0.892,1,0,4,0,1,1,0
0,2,0.992,1,1,5,1,0,1,1
0,2,1.273,1,1,6,1,0,1,1
0,2,0.016,1,1,10,1,0,0,1
0,1,0.703,1,1,2,1,0,1,0
0,1,0.76,1,0,3,0,1,1,0
0,1,0.488,1,1,4,1,0,1,0
0,1,0.444,1,0,5,0,1,1,1
0,1,0.806,1,0,6,0,1,1,1
0,1,0.897,1,0,7,0,1,1,1
0,1,0.792,1,1,8,1,0,1,1
0,1,0.841,1,0,9,0,1,0,1
0,1,0.886,1,1,10,1,0,0,1
0,3,0.904,1,0,4,0,1,1,0
0,3,1.152,1,0,5,0,1,1,1
0,3,1.385,1,1,6,1,0,1,1
0,3,1.398,0,0,7,1,0,1,1
0,3,1.428,0,0,8,1,0,1,1
0,3,0.978,1,1,9,1,0,0,1
0,3,0.974,1,0,10,0,0,0,1
0,1,0.698,1,1,2,1,0,1,0
0,1,0.844,1,0,3,0,1,1,0
0,1,0.568,1,1,4,1,0,1,0
0,1,0.822,1,0,5,0,1,1,1
0,1,0.62,1,1,6,1,0,1,1
0,1,0.823,1,0,7,0,1,1,1
0,1,0.822,1,0,8,0,1,1,1
0,1,0.746,1,0,9,0,1,0,1
0,1,0.881,1,1,10,1,0,0,1
0,3,0.967,1,1,4,1,0,1,0
0,3,0.991,1,0,5,0,1,1,1
0,3,1.163,1,0,6,0,1,1,1
0,3,1.385,0,0,7,1,0,1,1
0,3,1.463,1,0,9,0,1,0,1
0,3,1.278,0,0,10,1,0,0,1
0,2,1.179,1,0,4,0,1,1,0
0,2,0.867,1,0,5,0,1,1,1
0,2,0.96,1,1,6,1,0,1,1
0,2,0.966,1,0,7,0,1,1,1
0,2,1.023,1,0,8,0,1,1,1
0,2,0.579,1,1,9,1,0,0,1
0,2,0.977,0,0,10,1,0,0,1
0,1,0.821,1,0,2,0,1,1,0
0,1,0.776,1,1,3,1,0,1,0
0,1,0.755,1,0,4,0,1,1,0
0,1,0.789,1,0,5,0,1,1,1
0,1,0.583,1,1,6,1,0,1,1
0,1,0.44,1,0,8,0,1,1,1
0,1,0.608,0,1,9,0,1,0,1
0,1,1.144,1,1,10,1,0,0,1
0,3,0.973,1,0,4,0,1,1,0
0,3,0.93,1,1,5,1,0,1,1
0,3,1.32,1,1,6,1,0,1,1
0,3,0.53,0,0,7,1,0,1,1
0,3,0.825,1,0,8,0,1,1,1
0,3,0.624,1,0,9,0,1,0,1
0,3,0.926,1,1,10,1,0,0,1
0,2,0.612,1,1,3,1,0,1,0
0,2,0.875,1,0,4,0,1,1,0
0,2,1.271,1,1,5,1,0,1,1
0,2,0.91,1,0,6,0,1,1,1
0,2,0.953,1,0,8,0,1,1,1
0,2,0.978,1,1,9,1,0,0,1
0,2,1.198,1,1,10,1,0,0,1
0,1,0.825,1,1,2,1,0,1,0
0,1,0.995,1,0,3,0,1,1,0
0,1,0.549,1,1,4,1,0,1,0
0,1,0.963,1,0,5,0,1,1,1
0,1,0.88,1,0,6,0,1,1,1
0,1,0.667,1,1,7,1,0,1,1
0,1,0.868,1,0,8,0,1,1,1
0,1,1.041,1,0,9,0,1,0,1
0,1,0.86,1,1,10,1,0,0,1
0,3,0.926,1,0,4,0,1,1,0
0,3,1.084,1,0,5,0,1,1,1
0,3,1.008,1,1,6,1,0,1,1
0,3,1.413,1,0,7,0,1,1,1
0,3,1.146,0,0,8,1,0,1,1
0,3,0.502,0,0,9,1,0,0,1
0,3,0.545,1,1,10,1,0,0,1
0,1,0.634,1,1,2,1,0,1,0
0,1,1.119,0,0,3,1,0,1,0
0,1,0.836,1,0,4,0,1,1,0
0,1,0.84,1,0,5,0,1,1,1
0,1,0.777,1,0,6,0,1,1,1
0,1,0.456,1,0,7,0,1,1,1
0,1,1.173,1,0,8,0,1,1,1
0,1,0.542,0,0,9,1,0,0,1
0,1,0.869,1,1,10,1,0,0,1
0,3,1.08,1,0,4,0,1,1,0
0,3,0.779,1,1,5,1,0,1,1
0,3,0.94,1,1,6,1,0,1,1
0,3,1.136,1,0,7,0,1,1,1
0,3,1.294,0,0,8,1,0,1,1
0,3,1.162,0,1,10,0,1,0,1
0,2,0.952,1,0,3,0,1,1,0
0,2,0.74,1,1,4,1,0,1,0
0,2,1.386,0,0,5,1,0,1,1
0,2,1.301,1,0,6,0,1,1,1
0,2,0.72,1,1,7,1,0,1,1
0,2,0.946,1,0,8,0,1,1,1
0,2,1.094,1,0,9,0,1,0,1
0,2,0.835,1,1,10,1,0,0,1
0,1,0.932,1,0,2,0,1,1,0
0,1,0.906,1,1,3,1,0,1,0
0,1,1.09,1,1,4,1,0,1,0
0,1,0.807,1,0,5,0,1,1,1
0,1,1.011,1,0,6,0,1,1,1
0,1,0.621,1,1,7,1,0,1,1
0,1,0.806,1,0,8,0,1,1,1
0,1,0.528,1,1,9,1,0,0,1
0,1,0.921,1,0,10,0,1,0,1
0,2,0.601,1,1,3,1,0,1,0
0,2,0.693,1,1,4,1,0,1,0
0,2,0.929,1,0,5,0,1,1,1
0,2,1.269,1,0,6,0,1,1,1
0,2,0.677,1,1,7,1,0,1,1
0,2,0.71,1,0,8,0,1,1,1
0,2,1.047,1,1,9,1,0,0,1
0,2,0.971,1,0,10,0,1,0,1
1,1,0.735,0,0,2,1,0,1,0
1,1,0.966,0,0,3,1,0,1,0
1,1,1.36,1,0,4,0,1,1,0
1,1,0.82,1,1,5,1,0,1,1
1,1,1.188,1,0,6,0,1,1,1
1,1,1.29,1,0,7,0,1,1,1
1,1,1.068,1,0,8,0,1,1,1
1,1,0.883,1,1,9,1,0,0,1
1,1,1.15,1,0,10,0,1,0,1
1,2,1.318,1,1,4,1,0,1,0
1,2,1.394,1,0,5,0,1,1,1
1,2,1.419,1,0,6,0,1,1,1
1,2,0.827,1,1,7,1,0,1,1
1,2,0.874,1,0,8,0,1,1,1
1,2,0.772,1,1,9,1,0,0,1
1,2,0.512,1,0,10,0,1,0,1
1,3,0.539,1,0,4,0,1,1,0
1,3,0.796,1,0,5,0,1,1,1
1,3,0.677,0,0,6,1,0,1,1
1,3,1.019,1,0,7,0,1,1,1
1,3,0.886,1,1,8,1,0,1,1
1,3,0.325,0,0,9,1,0,0,1
1,3,0.558,1,1,10,1,0,0,1
1,2,0.971,1,0,4,0,1,1,0
1,2,0.694,0,0,5,1,0,1,1
1,2,0.581,1,0,6,0,1,1,1
1,2,0.408,1,1,7,1,0,1,1
1,2,0.357,1,0,8,0,1,1,1
1,2,0.692,1,1,9,1,0,0,1
1,2,0.554,1,0,10,0,1,0,1
1,1,1.071,1,0,2,0,1,1,0
1,1,0.86,1,1,3,1,0,1,0
1,1,0.704,1,0,4,0,1,1,0
1,1,0.69,0,0,5,1,0,1,1
1,1,0.81,1,0,6,0,1,1,1
1,1,0.635,1,1,7,1,0,1,1
1,1,0.626,1,0,8,0,1,1,1
1,1,0.432,1,1,9,1,0,0,1
1,1,0.383,1,0,10,0,1,0,1
1,3,0.695,1,1,4,1,0,1,0
1,3,1.109,0,0,5,1,0,1,1
1,3,1.037,1,0,6,0,1,1,1
1,3,1.11,1,1,7,1,0,1,1
1,3,0.752,1,0,8,0,1,1,1
1,3,0.91,0,1,9,0,1,0,1
1,3,0.594,0,0,10,1,0,0,1
1,1,0.821,1,1,2,1,0,1,0
1,1,0.271,1,0,3,0,1,1,0
1,1,0.477,1,1,4,1,0,1,0
1,1,0.608,1,0,5,0,1,1,1
1,1,0.655,1,1,6,1,0,1,1
1,1,0.541,1,0,7,0,1,1,1
1,1,0.367,0,1,8,0,1,1,1
1,1,0.254,0,1,9,0,1,0,1
1,1,0.627,1,1,10,1,0,0,1
1,3,0.725,1,0,4,0,1,1,0
1,3,0.841,1,1,5,1,0,1,1
1,3,1.359,1,1,6,1,0,1,1
1,3,0.921,0,0,7,1,0,1,1
1,3,0.796,0,1,8,0,1,1,1
1,3,0.766,1,0,9,0,1,0,1
1,3,1.194,1,1,10,1,0,0,1
1,2,0.805,1,1,3,1,0,1,0
1,2,0.434,1,0,4,0,1,1,0
1,2,0.895,1,0,5,0,1,1,1
1,2,0.483,1,1,6,1,0,1,1
1,2,0.295,1,0,7,0,1,1,1
1,2,0.836,1,0,8,0,1,1,1
1,2,0.559,1,1,9,1,0,0,1
1,2,0.361,0,0,10,1,0,0,1
1,2,0.837,1,0,3,0,1,1,0
1,2,1.005,1,0,4,0,1,1,0
1,2,0.872,1,1,5,1,0,1,1
1,2,0.807,0,0,6,1,0,1,1
1,2,0.883,1,1,7,1,0,1,1
1,2,1.089,1,0,8,0,1,1,1
1,2,1.428,0,1,9,0,1,0,1
1,3,0.792,1,1,4,1,0,1,0
1,3,0.632,0,0,5,1,0,1,1
1,3,0.861,1,0,6,0,1,1,1
1,3,1.303,1,0,7,0,1,1,1
1,3,1.064,1,0,8,0,1,1,1
1,3,0.685,1,1,9,1,0,0,1
1,3,1.433,1,1,10,1,0,0,1
1,2,0.678,0,0,3,1,0,1,0
1,2,0.943,1,0,4,0,1,1,0
1,2,0.863,1,0,5,0,1,1,1
1,2,0.879,1,1,6,1,0,1,1
1,2,1.002,1,1,7,1,0,1,1
1,2,0.723,1,0,8,0,1,1,1
1,2,1.149,1,0,9,0,1,0,1
1,2,1.065,1,1,10,1,0,0,1
1,1,0.576,1,1,2,1,0,1,0
1,1,0.673,1,0,3,0,1,1,0
1,1,0.861,1,1,4,1,0,1,0
1,1,0.907,1,0,5,0,1,1,1
1,1,0.972,1,0,6,0,1,1,1
1,1,0.87,1,0,7,0,1,1,1
1,1,1.104,1,1,8,1,0,1,1
1,1,0.895,1,0,9,0,1,0,1
1,1,0.738,1,1,10,1,0,0,1
1,3,0.822,1,1,4,1,0,1,0
1,3,0.806,1,1,5,1,0,1,1
1,3,0.582,1,0,6,0,1,1,1
1,3,1.179,0,0,7,1,0,1,1
1,3,0.791,1,1,8,1,0,1,1
1,3,0.967,0,1,9,0,0,0,1
1,1,1.15,1,1,2,1,0,1,0
1,1,0.892,1,0,4,0,1,1,0
1,1,0.992,0,1,5,0,1,1,1
1,1,0.914,1,0,6,0,1,1,1
1,1,0.973,1,0,7,0,1,1,1
1,1,1.294,1,0,8,0,1,1,1
1,1,1.124,1,1,9,1,0,0,1
1,1,1.38,1,1,10,1,0,0,1
1,3,0.739,1,1,4,1,0,1,0
1,3,0.157,1,0,5,0,1,1,1
1,3,1.185,1,0,6,0,1,1,1
1,3,0.894,1,1,7,1,0,1,1
1,3,0.816,0,0,8,1,0,1,1
1,3,1.145,0,1,9,0,1,0,1
1,3,0.514,0,0,10,1,0,0,1
1,2,0.89,0,0,3,1,0,1,0
1,2,0.863,1,0,5,0,1,1,1
1,2,0.94,1,0,6,0,1,1,1
1,2,0.825,1,1,7,1,0,1,1
1,2,0.596,1,0,8,0,1,1,1
1,2,0.834,1,1,9,1,0,0,1
1,2,0.138,1,0,10,0,1,0,1
1,1,0.88,1,0,2,0,1,1,0
1,1,0.626,0,0,3,1,0,1,0
1,1,1.15,1,1,4,1,0,1,0
1,1,0.756,1,0,5,0,1,1,1
1,1,1.026,1,0,6,0,1,1,1
1,1,0.778,1,1,7,1,0,1,1
1,1,0.694,1,0,8,0,1,1,1
1,1,0.68,1,1,9,1,0,0,1
1,1,0.586,1,0,10,0,1,0,1
1,3,0.818,1,1,4,1,0,1,0
1,3,0.87,1,0,5,0,1,1,1
1,3,1.331,1,1,6,1,0,1,1
1,3,0.941,1,0,7,0,1,1,1
1,3,0.802,1,0,8,0,1,1,1
1,3,0.858,1,1,9,1,0,0,1
1,3,0.559,0,0,10,1,0,0,1
1,2,0.75,1,0,3,0,1,1,0
1,2,0.911,1,1,4,1,0,1,0
1,2,1.364,1,1,5,1,0,1,1
1,2,1.117,1,0,6,0,1,1,1
1,2,1.093,1,1,7,1,0,1,1
1,2,0.725,1,0,8,0,1,1,1
1,2,0.495,1,0,9,0,1,0,1
1,2,0.77,1,1,10,1,0,0,1
1,1,0.042,1,0,2,0,1,1,0
1,1,0.805,1,1,3,1,0,1,0
1,1,0.558,1,0,4,0,1,1,0
1,1,0.837,1,1,5,1,0,1,1
1,1,0.658,1,0,6,0,1,1,1
1,1,0.668,1,1,7,1,0,1,1
1,1,0.746,1,0,8,0,1,1,1
1,1,0.815,1,0,9,0,1,0,1
1,1,0.623,1,1,10,1,0,0,1
1,3,1.183,1,0,4,0,1,1,0
1,3,1.097,1,0,5,0,1,1,1
1,3,1.482,1,1,6,1,0,1,1
1,3,1.313,1,1,7,1,0,1,1
1,3,0.662,0,0,8,1,0,1,1
1,3,0.869,1,1,9,1,0,0,1
1,3,1.271,0,1,10,0,0,0,1
1,1,0.687,1,0,2,0,1,1,0
1,1,0.928,1,1,3,1,0,1,0
1,1,0.872,1,0,4,0,1,1,0
1,1,0.997,1,0,5,0,1,1,1
1,1,0.716,1,1,6,1,0,1,1
1,1,0.944,1,1,7,1,0,1,1
1,1,0.779,1,0,8,0,1,1,1
1,1,0.694,1,0,9,0,1,0,1
1,1,0.933,1,1,10,1,0,0,1
1,3,1.145,1,0,4,0,1,1,0
1,3,1.194,1,1,5,1,0,1,1
1,3,0.971,1,1,6,1,0,1,1
1,3,1.038,1,0,7,0,1,1,1
1,3,0.756,1,1,9,1,0,0,1
1,3,0.854,1,0,10,0,1,0,1
1,2,1.01,1,1,3,1,0,1,0
1,2,0.595,1,0,4,0,1,1,0
1,2,0.742,1,1,5,1,0,1,1
1,2,0.435,1,0,6,0,1,1,1
1,2,1.076,1,0,7,0,1,1,1
1,2,0.661,0,1,8,0,1,1,1
1,2,0.711,0,0,9,1,0,0,1
1,2,0.51,1,1,10,1,0,0,1
1,1,0.874,1,1,2,1,0,1,0
1,1,0.768,1,0,3,0,1,1,0
1,1,0.577,1,1,4,1,0,1,0
1,1,0.874,1,0,5,0,1,1,1
1,1,0.682,1,0,6,0,1,1,1
1,1,0.679,1,1,7,1,0,1,1
1,1,0.791,1,0,8,0,1,1,1
1,1,0.802,1,0,9,0,1,0,1
1,1,0.779,1,1,10,1,0,0,1
1,2,0.889,1,1,3,1,0,1,0
1,2,0.765,1,0,4,0,1,1,0
1,2,0.761,0,1,6,0,1,1,1
1,2,1.326,1,1,7,1,0,1,1
1,2,0.593,1,0,8,0,1,1,1
1,2,1.254,1,0,9,0,1,0,1
1,2,0.824,1,1,10,1,0,0,1
2,1,0.059,0,0,2,1,0,1,0
2,1,1.275,1,0,6,0,1,1,1
2,1,0.94,1,0,7,0,1,1,1
2,1,1.084,0,1,8,0,1,1,1
2,1,1.114,1,1,9,1,0,0,1
2,1,1.206,1,0,10,0,1,0,1
2,2,0.821,1,1,3,1,0,1,0
2,2,1.196,1,0,4,0,1,1,0
2,2,0.808,1,1,5,1,0,1,1
2,2,0.877,1,0,6,0,1,1,1
2,2,1.007,0,1,7,0,1,1,1
2,2,0.904,1,0,8,0,1,1,1
2,2,1.125,1,1,9,1,0,0,1
2,2,1.009,0,0,10,1,0,0,1
2,3,0.828,1,1,4,1,0,1,0
2,3,1.19,0,0,5,1,0,1,1
2,3,1.449,1,1,7,1,0,1,1
2,3,1.165,0,1,8,0,1,1,1
2,3,0.866,1,0,9,0,1,0,1
2,3,0.965,0,0,10,1,0,0,1
2,2,0.662,1,0,3,0,1,1,0
2,2,0.907,0,1,4,0,1,1,0
2,2,1.159,1,1,5,1,0,1,1
2,2,0.794,1,1,6,1,0,1,1
2,2,0.801,1,1,7,1,0,1,1
2,2,0.749,1,0,8,0,1,1,1
2,2,0.851,1,0,9,0,1,0,1
2,2,0.975,1,1,10,1,0,0,1
2,1,0.834,1,0,2,0,1,1,0
2,1,1.007,1,1,3,1,0,1,0
2,1,0.968,1,0,4,0,1,1,0
2,1,1.018,1,1,5,1,0,1,1
2,1,0.771,1,0,6,0,1,1,1
2,1,1.19,1,1,7,1,0,1,1
2,1,0.907,0,1,9,0,1,0,1
2,1,0.611,1,1,10,1,0,0,1
2,3,1.093,1,1,5,1,0,1,1
2,3,0.967,1,1,7,1,0,1,1
2,3,1.111,1,0,8,0,1,1,1
2,3,0.995,1,0,9,0,1,0,1
2,3,0.872,1,1,10,1,0,0,1
2,1,1.056,1,1,2,1,0,1,0
2,1,0.928,1,0,3,0,1,1,0
2,1,0.791,1,1,4,1,0,1,0
2,1,1.482,0,1,5,0,1,1,1
2,1,0.919,1,0,6,0,1,1,1
2,1,0.692,0,1,7,0,1,1,1
2,1,0.951,1,1,8,1,0,1,1
2,1,0.899,0,1,9,0,1,0,1
2,1,1.007,1,1,10,1,0,0,1
2,3,1.031,0,1,4,0,1,1,0
2,3,0.75,1,0,5,0,1,1,1
2,3,0.861,1,1,6,1,0,1,1
2,3,0.889,1,0,7,0,1,1,1
2,3,0.937,1,1,8,1,0,1,1
2,3,0.759,1,1,9,1,0,0,1
2,3,1.12,1,1,10,1,0,0,1
2,2,0.599,1,1,3,1,0,1,0
2,2,0.96,1,0,4,0,1,1,0
2,2,0.708,1,1,5,1,0,1,1
2,2,0.96,1,0,6,0,1,1,1
2,2,0.96,1,1,7,1,0,1,1
2,2,0.963,1,0,8,0,1,1,1
2,2,0.883,0,1,9,0,1,0,1
2,2,1.197,1,1,10,1,0,0,1
2,2,1.011,1,1,3,1,0,1,0
2,2,0.805,1,0,4,0,1,1,0
2,2,0.759,1,0,5,0,1,1,1
2,2,0.581,1,1,6,1,0,1,1
2,2,0.736,1,0,7,0,1,1,1
2,2,0.8,0,1,8,0,1,1,1
2,2,0.912,1,1,9,1,0,0,1
2,2,0.705,1,1,10,1,0,0,1
2,3,0.758,0,1,4,0,1,1,0
2,3,1.339,0,0,6,1,0,1,1
2,3,0.838,1,1,7,1,0,1,1
2,3,0.775,1,1,8,1,0,1,1
2,3,1.149,1,1,9,1,0,0,1
2,3,1.043,0,1,10,0,0,0,1
2,2,0.737,1,1,3,1,0,1,0
2,2,0.887,1,0,4,0,1,1,0
2,2,1.068,1,0,5,0,1,1,1
2,2,0.859,1,1,6,1,0,1,1
2,2,0.637,1,1,7,1,0,1,1
2,2,0.993,1,0,8,0,1,1,1
2,2,1.227,1,0,9,0,1,0,1
2,2,0.836,1,1,10,1,0,0,1
2,1,1.054,1,0,2,0,1,1,0
2,1,0.875,1,1,3,1,0,1,0
2,1,0.773,1,0,4,0,1,1,0
2,1,0.851,1,1,5,1,0,1,1
2,1,1.096,1,0,6,0,1,1,1
2,1,0.637,1,1,7,1,0,1,1
2,1,1.284,1,0,8,0,1,1,1
2,1,0.554,1,1,9,1,0,0,1
2,1,1.218,1,0,10,0,1,0,1
2,3,0.643,1,1,4,1,0,1,0
2,3,0.865,1,0,5,0,1,1,1
2,3,0.851,1,1,7,1,0,1,1
2,3,1.006,1,1,8,1,0,1,1
2,3,0.802,0,1,9,0,1,0,1
2,3,0.967,1,1,10,1,0,0,1
2,1,0.874,1,1,2,1,0,1,0
2,1,0.679,1,0,3,0,1,1,0
2,1,0.563,1,1,4,1,0,1,0
2,1,0.813,1,0,5,0,1,1,1
2,1,0.873,1,1,6,1,0,1,1
2,1,1.287,1,0,7,0,1,1,1
2,1,1.333,1,0,9,0,1,0,1
2,1,0.679,1,1,10,1,0,0,1
2,3,0.79,1,0,4,0,1,1,0
2,3,0.976,1,1,5,1,0,1,1
2,3,0.69,1,1,6,1,0,1,1
2,3,0.841,1,0,7,0,1,1,1
2,3,0.768,1,1,8,1,0,1,1
2,3,1.123,1,1,9,1,0,0,1
2,3,0.776,0,1,10,0,1,0,1
2,2,1.148,1,1,3,1,0,1,0
2,2,0.842,1,1,4,1,0,1,0
2,2,0.614,1,0,5,0,1,1,1
2,2,0.881,0,1,6,0,1,1,1
2,2,0.743,1,1,7,1,0,1,1
2,2,0.683,1,0,8,0,1,1,1
2,2,1.008,1,1,9,1,0,0,1
2,2,1.112,1,0,10,0,1,0,1
2,1,1.007,1,0,2,0,1,1,0
2,1,1.026,1,1,3,1,0,1,0
2,1,1.091,1,1,4,1,0,1,0
2,1,0.85,1,1,7,1,0,1,1
2,1,1.313,1,0,8,0,1,1,1
2,1,0.645,1,1,9,1,0,0,1
2,1,0.789,1,0,10,0,1,0,1
2,3,1.273,0,0,4,1,0,1,0
2,3,0.774,1,1,5,1,0,1,1
2,3,0.658,0,1,6,0,1,1,1
2,3,1.199,0,1,8,0,1,1,1
2,3,0.862,1,1,9,1,0,0,1
2,3,0.722,1,1,10,1,0,0,1
2,2,0.81,1,1,3,1,0,1,0
2,2,0.978,1,0,4,0,1,1,0
2,2,0.842,1,1,5,1,0,1,1
2,2,0.803,1,1,7,1,0,1,1
2,2,1.277,1,0,8,0,1,1,1
2,2,0.895,1,1,9,1,0,0,1
2,2,0.959,1,0,10,0,1,0,1
2,1,0.779,1,1,2,1,0,1,0
2,1,0.886,1,0,3,0,1,1,0
2,1,0.605,1,1,4,1,0,1,0
2,1,1.085,1,0,5,0,1,1,1
2,1,1.085,1,0,6,0,1,1,1
2,1,0.878,1,1,7,1,0,1,1
2,1,0.979,1,0,8,0,1,1,1
2,1,1.351,1,1,10,1,0,0,1
2,3,0.609,1,1,4,1,0,1,0
2,3,0.799,1,0,5,0,1,1,1
2,3,0.854,1,1,6,1,0,1,1
2,3,1.058,1,0,7,0,1,1,1
2,3,0.798,1,1,9,1,0,0,1
2,3,1.33,1,1,10,1,0,0,1
2,1,1.012,1,0,2,0,1,1,0
2,1,0.818,1,1,3,1,0,1,0
2,1,0.906,1,0,4,0,1,1,0
2,1,0.722,1,0,5,0,1,1,1
2,1,0.956,1,1,6,1,0,1,1
2,1,1.014,1,1,7,1,0,1,1
2,1,1.063,1,0,8,0,1,1,1
2,1,1.015,0,1,9,0,1,0,1
2,1,1.085,1,1,10,1,0,0,1
2,3,0.798,1,1,4,1,0,1,0
2,3,0.849,1,1,5,1,0,1,1
2,3,0.776,1,0,6,0,1,1,1
2,3,0.991,0,0,7,1,0,1,1
2,3,0.981,1,1,8,1,0,1,1
2,3,1.141,0,1,9,0,0,0,1
2,3,1.045,1,0,10,0,1,0,1
2,2,0.899,1,0,3,0,1,1,0
2,2,0.779,1,1,4,1,0,1,0
2,2,1.043,1,1,5,1,0,1,1
2,2,0.938,1,0,6,0,1,1,1
2,2,0.714,1,1,7,1,0,1,1
2,2,1.014,1,0,8,0,1,1,1
2,2,1.458,1,0,9,0,1,0,1
2,2,0.893,1,1,10,1,0,0,1
2,1,1.121,1,1,2,1,0,1,0
2,1,0.943,1,1,3,1,0,1,0
2,1,0.861,1,0,4,0,1,1,0
2,1,0.811,1,0,5,0,1,1,1
2,1,0.966,1,0,6,0,1,1,1
2,1,0.849,0,1,7,0,1,1,1
2,1,0.813,1,0,8,0,1,1,1
2,1,0.817,1,1,9,1,0,0,1
2,1,0.96,1,1,10,1,0,0,1
2,2,0.923,1,1,3,1,0,1,0
2,2,0.847,1,1,4,1,0,1,0
2,2,0.827,1,0,5,0,1,1,1
2,2,0.865,1,0,6,0,1,1,1
2,2,0.742,1,1,7,1,0,1,1
2,2,1.127,0,1,8,0,1,1,1
2,2,1.064,1,1,9,1,0,0,1
2,2,1.133,1,0,10,0,1,0,1
3,1,0.998,0,0,2,1,0,1,0
3,1,0.744,1,1,4,1,0,1,0
3,1,0.842,1,1,7,1,0,1,1
3,1,1.363,1,0,8,0,1,1,1
3,1,1.395,1,0,9,0,1,0,1
3,1,0.918,1,1,10,1,0,0,1
3,2,1.019,1,1,3,1,0,1,0
3,2,0.966,1,0,4,0,1,1,0
3,2,1.336,0,0,5,1,0,1,1
3,2,1.302,1,0,6,0,1,1,1
3,2,0.843,1,1,7,1,0,1,1
3,2,0.874,1,0,8,0,1,1,1
3,2,0.823,0,1,9,0,1,0,1
3,2,0.697,1,1,10,1,0,0,1
3,3,1.033,1,0,4,0,1,1,0
3,3,0.909,1,1,5,1,0,1,1
3,3,0.689,0,0,6,1,0,1,1
3,3,1.027,0,0,7,1,0,1,1
3,3,1.126,1,0,8,0,1,1,1
3,3,1.498,1,0,9,0,1,0,1
3,3,1.394,0,0,10,1,0,0,1
3,2,1.282,1,0,3,0,1,1,0
3,2,1.246,1,0,4,0,1,1,0
3,2,0.861,1,1,5,1,0,1,1
3,2,1.037,0,0,6,1,0,1,1
3,2,1.333,1,1,7,1,0,1,1
3,2,0.94,1,0,8,0,1,1,1
3,2,0.706,1,0,9,0,1,0,1
3,2,0.733,1,1,10,1,0,0,1
3,1,0.874,1,0,2,0,1,1,0
3,1,0.911,1,1,3,1,0,1,0
3,1,1.122,0,0,4,1,0,1,0
3,1,1.13,1,0,5,0,1,1,1
3,1,1.376,1,0,6,0,1,1,1
3,1,0.805,1,1,7,1,0,1,1
3,1,0.967,1,0,8,0,1,1,1
3,1,0.794,1,1,9,1,0,0,1
3,1,1.015,1,0,10,0,1,0,1
3,3,0.768,1,1,4,1,0,1,0
3,3,0.852,1,0,5,0,1,1,1
3,3,0.52,1,1,6,1,0,1,1
3,3,0.747,1,0,7,0,1,1,1
3,3,0.872,1,0,8,0,1,1,1
3,3,1.323,0,0,9,1,0,0,1
3,3,1.016,1,1,10,1,0,0,1
3,1,0.804,1,1,3,1,0,1,0
3,1,0.801,1,0,4,0,1,1,0
3,1,0.881,1,1,5,1,0,1,1
3,1,0.827,1,0,6,0,1,1,1
3,1,0.67,1,1,7,1,0,1,1
3,1,0.953,1,0,8,0,1,1,1
3,1,0.974,1,0,9,0,1,0,1
3,1,0.877,1,1,10,1,0,0,1
3,3,0.811,1,0,4,0,1,1,0
3,3,0.688,1,1,5,1,0,1,1
3,3,0.604,0,0,6,1,0,1,1
3,3,0.747,1,0,7,0,1,1,1
3,3,0.687,1,1,8,1,0,1,1
3,3,0.449,0,0,9,1,0,0,1
3,3,0.573,1,0,10,0,1,0,1
3,2,0.875,1,1,3,1,0,1,0
3,2,1.078,1,1,4,1,0,1,0
3,2,0.613,1,0,5,0,1,1,1
3,2,0.688,1,0,6,0,1,1,1
3,2,0.544,1,1,7,1,0,1,1
3,2,0.674,1,0,8,0,1,1,1
3,2,0.871,1,1,9,1,0,0,1
3,2,0.75,1,0,10,0,1,0,1
3,2,0.694,1,1,3,1,0,1,0
3,2,0.712,1,0,4,0,1,1,0
3,2,0.686,1,0,5,0,1,1,1
3,2,0.592,1,1,6,1,0,1,1
3,2,0.71,0,0,7,1,0,1,1
3,2,0.631,1,0,8,0,1,1,1
3,2,0.814,1,0,9,0,1,0,1
3,2,0.737,1,1,10,1,0,0,1
3,3,0.793,1,1,4,1,0,1,0
3,3,0.636,0,0,5,1,0,1,1
3,3,0.769,1,0,6,0,1,1,1
3,3,0.657,1,1,7,1,0,1,1
3,3,0.616,1,0,8,0,1,1,1
3,3,0.524,1,0,9,0,1,0,1
3,3,0.5,1,1,10,1,0,0,1
3,2,0.81,1,1,3,1,0,1,0
3,2,0.652,1,0,4,0,1,1,0
3,2,0.84,1,1,5,1,0,1,1
3,2,0.519,1,0,6,0,1,1,1
3,2,0.869,1,1,7,1,0,1,1
3,2,0.907,1,0,8,0,1,1,1
3,2,0.731,1,1,9,1,0,0,1
3,2,1.014,1,0,10,0,1,0,1
3,1,0.717,0,0,2,1,0,1,0
3,1,0.744,1,1,3,1,0,1,0
3,1,0.651,1,0,4,0,1,1,0
3,1,1.038,1,1,5,1,0,1,1
3,1,0.939,1,0,6,0,1,1,1
3,1,0.73,1,0,7,0,1,1,1
3,1,1.282,1,0,8,0,1,1,1
3,1,0.828,1,1,9,1,0,0,1
3,1,0.905,1,0,10,0,1,0,1
3,3,1.464,0,0,4,1,0,1,0
3,3,0.729,1,0,5,0,1,1,1
3,3,0.804,1,0,6,0,1,1,1
3,3,0.967,1,1,7,1,0,1,1
3,3,0.664,0,0,8,1,0,1,1
3,3,0.601,1,0,9,0,1,0,1
3,3,0.655,1,1,10,1,0,0,1
3,1,0.756,0,1,2,0,1,1,0
3,1,0.605,1,1,3,1,0,1,0
3,1,0.897,1,0,4,0,1,1,0
3,1,0.959,1,1,5,1,0,1,1
3,1,1.203,1,0,6,0,1,1,1
3,1,0.742,1,1,7,1,0,1,1
3,1,0.978,1,0,8,0,1,1,1
3,1,0.742,1,1,9,1,0,0,1
3,1,0.941,1,0,10,0,1,0,1
3,3,0.53,1,1,4,1,0,1,0
3,3,0.571,0,0,5,1,0,1,1
3,3,0.534,1,0,6,0,1,1,1
3,3,0.697,1,1,7,1,0,1,1
3,3,0.573,0,0,8,1,0,1,1
3,3,0.717,0,1,9,0,0,0,1
3,3,0.635,1,0,10,0,1,0,1
3,2,0.983,1,0,3,0,1,1,0
3,2,0.613,1,1,4,1,0,1,0
3,2,0.499,0,0,5,1,0,1,1
3,2,0.625,1,0,6,0,1,1,1
3,2,0.723,1,1,7,1,0,1,1
3,2,0.588,1,0,8,0,1,1,1
3,2,0.643,1,0,9,0,1,0,1
3,2,0.582,1,1,10,1,0,0,1
3,1,0.905,1,1,2,1,0,1,0
3,1,0.888,1,1,3,1,0,1,0
3,1,0.595,1,0,4,0,1,1,0
3,1,0.773,1,0,5,0,1,1,1
3,1,0.687,1,0,6,0,1,1,1
3,1,0.875,1,0,7,0,1,1,1
3,1,0.897,1,0,8,0,1,1,1
3,1,0.677,0,0,9,1,0,0,1
3,1,1.29,0,0,10,1,0,0,1
3,3,0.699,1,0,4,0,1,1,0
3,3,0.685,1,0,5,0,1,1,1
3,3,1.226,0,0,6,1,0,1,1
3,3,1.142,1,1,7,1,0,1,1
3,3,0.77,0,0,8,1,0,1,1
3,3,0.789,0,1,10,0,0,0,1
3,2,0.659,1,1,3,1,0,1,0
3,2,0.845,0,0,4,1,0,1,0
3,2,0.888,1,0,5,0,1,1,1
3,2,0.955,1,0,6,0,1,1,1
3,2,0.79,1,1,7,1,0,1,1
3,2,0.752,1,0,8,0,1,1,1
3,2,1.29,0,0,9,1,0,0,1
3,2,0.663,1,0,10,0,1,0,1
3,1,1.165,1,1,2,1,0,1,0
3,1,0.982,1,0,3,0,1,1,0
3,1,0.603,0,0,4,1,0,1,0
3,1,0.994,1,0,5,0,1,1,1
3,1,0.652,1,1,6,1,0,1,1
3,1,0.824,1,0,7,0,1,1,1
3,1,0.911,1,0,8,0,1,1,1
3,1,0.924,1,0,9,0,1,0,1
3,1,0.852,1,1,10,1,0,0,1
3,3,0.538,1,1,4,1,0,1,0
3,3,0.617,0,0,5,1,0,1,1
3,3,0.829,1,0,6,0,1,1,1
3,3,1.447,1,0,7,0,1,1,1
3,3,0.58,0,0,10,1,0,0,1
3,1,1.138,1,0,2,0,1,1,0
3,1,1.049,1,1,3,1,0,1,0
3,1,0.945,1,0,4,0,1,1,0
3,1,0.7,1,0,5,0,1,1,1
3,1,0.69,1,1,6,1,0,1,1
3,1,1.25,0,0,7,1,0,1,1
3,1,1.043,1,0,8,0,1,1,1
3,1,0.933,1,0,9,0,1,0,1
3,1,0.827,1,1,10,1,0,0,1
3,3,1.366,1,0,4,0,1,1,0
3,3,1.364,1,0,5,0,1,1,1
3,3,1.385,1,1,6,1,0,1,1
3,3,0.684,1,0,7,0,1,1,1
3,3,1.138,0,0,8,1,0,1,1
3,3,1.358,1,1,9,1,0,0,1
3,3,0.882,0,0,10,1,0,0,1
3,2,0.595,1,1,3,1,0,1,0
3,2,1.266,1,0,4,0,1,1,0
3,2,1.222,1,1,5,1,0,1,1
3,2,0.79,1,0,6,0,1,1,1
3,2,0.941,1,0,7,0,1,1,1
3,2,0.765,1,0,8,0,1,1,1
3,2,0.899,1,1,9,1,0,0,1
3,2,0.886,0,0,10,1,0,0,1
3,1,1.077,1,1,2,1,0,1,0
3,1,0.849,1,0,3,0,1,1,0
3,1,0.581,0,0,4,1,0,1,0
3,1,0.925,1,0,5,0,1,1,1
3,1,1.082,1,0,6,0,1,1,1
3,1,0.976,1,0,7,0,1,1,1
3,1,0.652,1,1,8,1,0,1,1
3,1,0.991,0,1,9,0,1,0,1
3,1,0.69,1,1,10,1,0,0,1
3,2,0.564,1,1,3,1,0,1,0
3,2,1.239,1,0,4,0,1,1,0
3,2,1.014,1,1,6,1,0,1,1
3,2,0.984,1,0,7,0,1,1,1
3,2,1.105,1,0,8,0,1,1,1
3,2,0.819,1,1,9,1,0,0,1
4,1,1.204,1,1,2,1,0,1,0
4,1,0.952,1,1,3,1,0,1,0
4,1,0.934,1,0,4,0,1,1,0
4,1,1.22,1,0,5,0,1,1,1
4,1,0.809,1,0,6,0,1,1,1
4,1,0.607,1,0,7,0,1,1,1
4,1,0.708,1,0,8,0,1,1,1
4,1,0.799,1,1,9,1,0,0,1
4,1,0.591,1,1,10,1,0,0,1
4,2,0.873,1,1,3,1,0,1,0
4,2,0.617,1,0,7,0,1,1,1
4,2,0.669,1,0,8,0,1,1,1
4,2,0.9,0,0,9,1,0,0,1
4,2,0.749,0,0,10,1,0,0,1
4,3,0.728,1,0,4,0,1,1,0
4,3,0.812,1,0,5,0,1,1,1
4,3,0.632,1,1,6,1,0,1,1
4,3,0.829,0,0,7,1,0,1,1
4,3,0.623,1,1,8,1,0,1,1
4,3,0.94,1,1,9,1,0,0,1
4,3,0.72,0,1,10,0,0,0,1
4,2,0.511,0,0,4,1,0,1,0
4,2,0.874,1,0,5,0,1,1,1
4,2,0.685,1,0,6,0,1,1,1
4,2,0.51,1,1,7,1,0,1,1
4,2,0.952,1,0,8,0,1,1,1
4,2,0.465,0,1,10,0,1,0,1
4,1,0.825,1,0,2,0,1,1,0
4,1,0.745,1,1,3,1,0,1,0
4,1,0.728,1,0,4,0,1,1,0
4,1,0.522,0,0,5,1,0,1,1
4,1,0.769,1,0,6,0,1,1,1
4,1,0.586,1,1,7,1,0,1,1
4,1,0.868,1,0,8,0,1,1,1
4,1,0.725,1,0,9,0,1,0,1
4,1,0.63,1,1,10,1,0,0,1
4,3,0.44,0,0,4,1,0,1,0
4,3,0.822,1,0,5,0,1,1,1
4,3,0.589,1,0,6,0,1,1,1
4,3,0.453,1,1,7,1,0,1,1
4,3,0.587,0,0,8,1,0,1,1
4,3,0.685,1,0,9,0,1,0,1
4,3,1.005,1,1,10,1,0,0,1
4,1,1.15,1,0,2,0,1,1,0
4,1,0.79,1,1,3,1,0,1,0
4,1,0.725,1,0,4,0,1,1,0
4,1,1.099,1,0,5,0,1,1,1
4,1,0.664,1,1,6,1,0,1,1
4,1,0.609,1,1,7,1,0,1,1
4,1,0.649,1,0,8,0,1,1,1
4,1,1.092,1,0,9,0,1,0,1
4,1,0.971,1,1,10,1,0,0,1
4,3,0.631,1,0,4,0,1,1,0
4,3,0.54,1,0,5,0,1,1,1
4,3,0.946,1,1,6,1,0,1,1
4,3,1.031,1,0,7,0,1,1,1
4,3,0.693,0,0,8,1,0,1,1
4,3,0.677,0,0,9,1,0,0,1
4,3,0.779,1,1,10,1,0,0,1
4,2,0.832,1,0,4,0,1,1,0
4,2,0.539,0,0,5,1,0,1,1
4,2,0.701,1,0,6,0,1,1,1
4,2,0.885,1,0,7,0,1,1,1
4,2,0.638,1,0,8,0,1,1,1
4,2,0.906,1,1,9,1,0,0,1
4,2,1.364,0,0,10,1,0,0,1
4,2,0.683,1,0,3,0,1,1,0
4,2,0.501,1,1,4,1,0,1,0
4,2,0.48,1,1,5,1,0,1,1
4,2,0.75,1,0,6,0,1,1,1
4,2,0.545,1,1,7,1,0,1,1
4,2,1.044,1,0,8,0,1,1,1
4,2,0.829,1,0,9,0,1,0,1
4,2,0.781,0,0,10,1,0,0,1
4,3,0.568,1,0,4,0,1,1,0
4,3,0.933,1,1,5,1,0,1,1
4,3,0.639,1,1,6,1,0,1,1
4,3,0.789,1,0,7,0,1,1,1
4,3,1.297,0,0,8,1,0,1,1
4,3,0.888,1,1,9,1,0,0,1
4,3,0.988,1,0,10,0,1,0,1
4,2,0.743,1,0,3,0,1,1,0
4,2,0.782,1,0,4,0,1,1,0
4,2,0.696,0,0,5,1,0,1,1
4,2,0.805,1,1,6,1,0,1,1
4,2,0.669,1,1,7,1,0,1,1
4,2,0.864,1,0,8,0,1,1,1
4,2,0.61,1,0,9,0,1,0,1
4,2,0.462,1,1,10,1,0,0,1
4,1,0.843,1,0,2,0,1,1,0
4,1,0.708,1,1,3,1,0,1,0
4,1,0.86,1,0,4,0,1,1,0
4,1,0.739,1,1,5,1,0,1,1
4,1,0.99,1,0,6,0,1,1,1
4,1,0.881,1,1,7,1,0,1,1
4,1,0.748,1,1,9,1,0,0,1
4,1,0.661,1,0,10,0,1,0,1
4,3,0.798,1,1,4,1,0,1,0
4,3,0.464,1,1,5,1,0,1,1
4,3,0.708,1,0,6,0,1,1,1
4,3,0.562,1,1,7,1,0,1,1
4,3,0.77,1,1,8,1,0,1,1
4,3,1.226,1,0,9,0,0,0,1
4,3,0.884,0,1,10,0,1,0,1
4,1,1.132,1,1,2,1,0,1,0
4,1,0.881,1,0,3,0,1,1,0
4,1,0.919,1,1,4,1,0,1,0
4,1,0.629,1,0,5,0,1,1,1
4,1,0.55,1,1,6,1,0,1,1
4,1,0.678,1,0,7,0,1,1,1
4,1,0.866,1,0,8,0,1,1,1
4,1,0.623,1,0,9,0,1,0,1
4,1,0.714,1,1,10,1,0,0,1
4,3,0.519,1,1,4,1,0,1,0
4,3,0.75,1,0,5,0,1,1,1
4,3,0.642,1,1,6,1,0,1,1
4,3,0.966,1,0,7,0,1,1,1
4,3,0.695,1,0,8,0,1,1,1
4,3,0.411,1,1,9,1,0,0,1
4,3,0.684,0,0,10,1,0,0,1
4,2,0.808,1,1,3,1,0,1,0
4,2,1.256,1,0,4,0,1,1,0
4,2,0.691,0,0,5,1,0,1,1
4,2,1.133,1,0,6,0,1,1,1
4,2,0.853,1,1,7,1,0,1,1
4,2,0.892,1,0,8,0,1,1,1
4,2,1.046,0,0,9,1,0,0,1
4,2,0.742,1,0,10,0,1,0,1
4,1,0.97,1,0,2,0,1,1,0
4,1,0.726,1,1,3,1,0,1,0
4,1,0.712,1,1,4,1,0,1,0
4,1,0.814,1,0,5,0,1,1,1
4,1,0.881,1,0,6,0,1,1,1
4,1,0.575,1,1,7,1,0,1,1
4,1,0.75,1,0,8,0,1,1,1
4,1,0.754,1,1,9,1,0,0,1
4,1,1.238,1,0,10,0,1,0,1
4,3,0.495,1,1,4,1,0,1,0
4,3,1.49,0,0,5,1,0,1,1
4,3,0.999,1,0,6,0,1,1,1
4,3,0.631,1,0,7,0,1,1,1
4,3,0.74,1,0,8,0,1,1,1
4,3,0.482,1,1,9,1,0,0,1
4,3,1.01,1,1,10,1,0,0,1
4,2,0.516,1,1,3,1,0,1,0
4,2,0.876,1,0,4,0,1,1,0
4,2,0.582,1,0,5,0,1,1,1
4,2,0.752,1,1,6,1,0,1,1
4,2,1.246,1,1,7,1,0,1,1
4,2,0.927,1,0,8,0,1,1,1
4,2,0.733,1,0,9,0,1,0,1
4,2,0.678,1,1,10,1,0,0,1
4,1,0.707,1,1,2,1,0,1,0
4,1,0.708,1,0,3,0,1,1,0
4,1,0.605,1,1,4,1,0,1,0
4,1,0.666,1,0,5,0,1,1,1
4,1,0.683,1,0,6,0,1,1,1
4,1,0.719,1,0,7,0,1,1,1
4,1,0.676,1,1,8,1,0,1,1
4,1,0.814,1,0,9,0,1,0,1
4,1,0.58,1,1,10,1,0,0,1
4,3,1.191,1,1,4,1,0,1,0
4,3,1.069,1,0,6,0,1,1,1
4,3,0.991,0,0,7,1,0,1,1
4,3,1.102,1,0,8,0,1,1,1
4,3,0.811,1,0,9,0,1,0,1
4,1,0.859,1,1,2,1,0,1,0
4,1,0.711,1,0,3,0,1,1,0
4,1,0.681,1,1,4,1,0,1,0
4,1,0.884,1,0,5,0,1,1,1
4,1,0.754,1,0,6,0,1,1,1
4,1,0.492,1,1,7,1,0,1,1
4,1,0.968,1,0,8,0,1,1,1
4,1,0.997,1,0,9,0,1,0,1
4,1,1.091,1,1,10,1,0,0,1
4,3,0.58,1,0,4,0,1,1,0
4,3,0.453,1,1,5,1,0,1,1
4,3,0.506,1,1,6,1,0,1,1
4,3,1.212,1,1,7,1,0,1,1
4,3,0.826,1,0,8,0,1,1,1
4,3,0.754,1,0,9,0,1,0,1
4,3,0.544,1,1,10,1,0,0,1
4,2,0.484,1,1,3,1,0,1,0
4,2,0.96,1,0,4,0,1,1,0
4,2,0.632,1,1,5,1,0,1,1
4,2,0.839,1,0,6,0,1,1,1
4,2,1.265,1,1,7,1,0,1,1
4,2,0.694,1,0,8,0,1,1,1
4,2,0.644,1,0,9,0,1,0,1
4,2,0.473,1,1,10,1,0,0,1
4,1,0.767,1,1,2,1,0,1,0
4,1,0.472,1,1,3,1,0,1,0
4,1,0.712,1,0,4,0,1,1,0
4,1,0.567,1,1,5,1,0,1,1
4,1,0.521,1,0,6,0,1,1,1
4,1,0.811,1,0,7,0,1,1,1
4,1,0.861,1,0,8,0,1,1,1
4,1,0.469,1,1,9,1,0,0,1
4,1,0.737,1,0,10,0,1,0,1
4,2,0.646,1,1,3,1,0,1,0
4,2,0.51,1,1,4,1,0,1,0
4,2,0.853,1,0,5,0,1,1,1
4,2,0.607,1,0,6,0,1,1,1
4,2,0.727,1,1,7,1,0,1,1
4,2,1.059,1,0,8,0,1,1,1
4,2,0.909,0,0,9,1,0,0,1
4,2,0.874,1,0,10,0,1,0,1
5,1,0.038,0,0,2,1,0,1,0
5,1,0.106,0,1,3,0,1,1,0
5,1,1.164,1,1,4,1,0,1,0
5,1,1.177,1,1,7,1,0,1,1
5,1,0.11,1,0,9,0,1,0,1
5,1,0.053,1,1,10,1,0,0,1
5,2,1.113,1,1,3,1,0,1,0
5,2,1.125,1,0,4,0,1,1,0
5,2,1.173,0,0,6,1,0,1,1
5,2,0.848,1,1,9,1,0,0,1
5,3,1.305,0,1,4,0,1,1,0
5,3,1.4,1,0,5,0,1,1,1
5,3,0.99,1,1,6,1,0,1,1
5,3,1.221,1,1,7,1,0,1,1
5,3,0.997,0,0,8,1,0,1,1
5,3,1.218,1,1,9,1,0,0,1
5,3,1.275,0,1,10,0,0,0,1
5,2,0.929,0,0,3,1,0,1,0
5,2,1.088,0,1,4,0,1,1,0
5,2,1.37,0,0,5,1,0,1,1
5,2,0.983,0,1,6,0,1,1,1
5,2,0.974,0,1,7,0,1,1,1
5,2,1.14,0,1,8,0,1,1,1
5,2,1.062,0,0,9,1,0,0,1
5,1,1.12,0,1,2,0,1,1,0
5,1,0.779,0,0,3,1,0,1,0
5,1,0.747,1,1,4,1,0,1,0
5,1,1.383,0,1,5,0,1,1,1
5,1,0.875,1,0,6,0,1,1,1
5,1,1.112,1,1,7,1,0,1,1
5,1,1.005,1,0,8,0,1,1,1
5,1,1.016,1,1,9,1,0,0,1
5,1,1.43,1,0,10,0,1,0,1
5,3,1.042,0,1,4,0,1,1,0
5,3,1.222,0,0,5,1,0,1,1
5,3,1.2,1,1,6,1,0,1,1
5,3,1.418,0,0,7,1,0,1,1
5,1,0.897,1,0,2,0,1,1,0
5,1,1.247,0,1,4,0,1,1,0
5,1,0.976,0,0,6,1,0,1,1
5,1,0.762,0,0,7,1,0,1,1
5,1,0.992,0,1,9,0,1,0,1
5,1,0.848,1,1,10,1,0,0,1
5,3,0.736,1,1,5,1,0,1,1
5,3,1.381,0,0,6,1,0,1,1
5,3,1.049,1,0,7,0,1,1,1
5,3,0.831,1,1,8,1,0,1,1
5,3,1.187,0,0,9,1,0,0,1
5,3,0.708,0,1,10,0,1,0,1
5,2,0.626,0,0,3,1,0,1,0
5,2,1.217,1,0,5,0,1,1,1
5,2,0.939,1,1,6,1,0,1,1
5,2,1.298,0,1,8,0,1,1,1
5,2,0.827,1,0,9,0,1,0,1
5,2,1.182,1,1,10,1,0,0,1
5,2,0.699,1,1,3,1,0,1,0
5,2,0.931,1,1,4,1,0,1,0
5,2,0.814,1,0,5,0,1,1,1
5,2,1.23,1,0,6,0,1,1,1
5,2,0.657,1,1,7,1,0,1,1
5,2,1.015,1,0,8,0,1,1,1
5,2,0.642,1,1,9,1,0,0,1
5,3,0.81,1,1,4,1,0,1,0
5,3,1.016,1,0,5,0,1,1,1
5,3,1.135,1,0,6,0,1,1,1
5,3,0.62,1,1,7,1,0,1,1
5,3,0.821,0,0,8,1,0,1,1
5,3,1.442,1,0,9,0,1,0,1
5,3,0.682,1,1,10,1,0,0,1
5,2,0.807,1,1,3,1,0,1,0
5,2,0.914,1,0,4,0,1,1,0
5,2,1.163,1,1,5,1,0,1,1
5,2,1.36,1,0,6,0,1,1,1
5,2,0.772,1,1,7,1,0,1,1
5,2,1.291,1,0,10,0,1,0,1
5,1,0.776,1,1,2,1,0,1,0
5,1,0.71,1,1,3,1,0,1,0
5,1,1.315,0,1,4,0,1,1,0
5,1,0.817,1,1,5,1,0,1,1
5,1,0.848,1,0,6,0,1,1,1
5,1,0.994,1,0,7,0,1,1,1
5,1,1.035,1,0,8,0,1,1,1
5,1,0.897,1,1,9,1,0,0,1
5,1,0.785,1,0,10,0,1,0,1
5,3,0.977,1,1,4,1,0,1,0
5,3,0.82,1,1,5,1,0,1,1
5,3,1.038,1,0,6,0,1,1,1
5,3,0.842,1,1,7,1,0,1,1
5,3,0.879,1,0,8,0,1,1,1
5,3,1.161,1,0,9,0,1,0,1
5,3,0.738,1,1,10,1,0,0,1
5,1,0.863,1,0,2,0,1,1,0
5,1,0.016,0,1,4,0,1,1,0
5,1,0.86,0,0,5,1,0,1,1
5,1,1.011,1,1,7,1,0,1,1
5,1,1.418,1,0,8,0,1,1,1
5,1,0.869,1,1,9,1,0,0,1
5,1,1.258,1,0,10,0,1,0,1
5,3,0.917,1,1,4,1,0,1,0
5,3,0.923,1,1,5,1,0,1,1
5,3,0.889,1,0,6,0,1,1,1
5,3,0.782,1,1,7,1,0,1,1
5,3,0.996,1,1,8,1,0,1,1
5,3,0.796,0,1,9,0,0,0,1
5,3,1.311,1,0,10,0,1,0,1
5,2,0.272,1,0,3,0,1,1,0
5,2,0.949,1,1,5,1,0,1,1
5,2,0.846,1,1,6,1,0,1,1
5,2,0.671,1,1,7,1,0,1,1
5,2,1.061,1,0,8,0,1,1,1
5,2,1.039,1,1,10,1,0,0,1
5,1,0.674,1,1,2,1,0,1,0
5,1,1.093,0,1,3,0,1,1,0
5,1,0.629,1,1,4,1,0,1,0
5,1,1.088,1,0,6,0,1,1,1
5,1,0.936,0,1,7,0,1,1,1
5,1,1.333,0,0,8,1,0,1,1
5,1,0.613,0,1,9,0,1,0,1
5,1,0.608,1,1,10,1,0,0,1
5,3,0.922,1,1,4,1,0,1,0
5,3,1.221,1,1,5,1,0,1,1
5,3,1.024,1,0,6,0,1,1,1
5,3,0.729,1,0,8,0,1,1,1
5,3,0.731,0,0,10,1,0,0,1
5,2,0.623,1,1,3,1,0,1,0
5,2,0.718,1,0,4,0,1,1,0
5,2,0.641,1,1,5,1,0,1,1
5,2,1.331,1,0,6,0,1,1,1
5,2,0.968,1,1,7,1,0,1,1
5,2,0.837,1,0,8,0,1,1,1
5,2,0.827,1,0,9,0,1,0,1
5,2,0.76,0,0,10,1,0,0,1
5,1,1.096,1,0,2,0,1,1,0
5,1,0.962,1,1,3,1,0,1,0
5,1,1.024,1,0,4,0,1,1,0
5,1,0.995,1,1,5,1,0,1,1
5,1,1.122,1,0,6,0,1,1,1
5,1,0.947,1,1,7,1,0,1,1
5,1,1.085,1,0,8,0,1,1,1
5,1,0.753,0,1,9,0,1,0,1
5,1,0.484,1,1,10,1,0,0,1
5,3,0.969,0,1,4,0,1,1,0
5,3,1.239,0,1,5,0,1,1,1
5,3,1.213,0,0,6,1,0,1,1
5,3,1.029,1,0,7,0,1,1,1
5,3,1.443,1,1,8,1,0,1,1
5,3,0.945,0,0,9,1,0,0,1
5,3,1.084,0,0,10,1,0,0,1
5,1,0.707,1,1,2,1,0,1,0
5,1,0.608,1,0,3,0,1,1,0
5,1,0.549,1,1,4,1,0,1,0
5,1,0.894,1,0,5,0,1,1,1
5,1,0.544,1,1,6,1,0,1,1
5,1,1.059,1,0,7,0,1,1,1
5,1,0.918,1,0,8,0,1,1,1
5,1,1.073,1,0,9,0,1,0,1
5,1,0.886,1,1,10,1,0,0,1
5,3,1.37,1,1,4,1,0,1,0
5,3,0.853,1,0,5,0,1,1,1
5,3,0.735,0,0,6,1,0,1,1
5,3,1.386,1,0,7,0,1,1,1
5,3,0.995,1,0,8,0,1,1,1
5,3,1.047,1,1,9,1,0,0,1
5,3,0.967,1,1,10,1,0,0,1
5,2,0.871,1,1,5,1,0,1,1
5,2,1.192,1,0,6,0,1,1,1
5,2,0.789,1,1,7,1,0,1,1
5,2,1.38,0,1,8,0,1,1,1
5,2,1.03,1,0,9,0,1,0,1
5,2,1.041,1,1,10,1,0,0,1
5,1,1.115,1,1,2,1,0,1,0
5,1,1.145,1,1,3,1,0,1,0
5,1,0.724,1,0,4,0,1,1,0
5,1,1.373,0,1,5,0,1,1,1
5,1,0.898,1,0,7,0,1,1,1
5,1,0.824,1,0,8,0,1,1,1
5,1,1.111,0,0,9,1,0,0,1
5,1,0.905,1,1,10,1,0,0,1
5,2,1.294,1,1,3,1,0,1,0
5,2,1.179,0,0,4,1,0,1,0
5,2,1.078,0,1,5,0,1,1,1
5,2,1.233,1,0,6,0,1,1,1
5,2,0.881,1,1,7,1,0,1,1
5,2,0.957,0,1,8,0,1,1,1
5,2,1.293,0,0,9,1,0,0,1
5,2,0.862,0,1,10,0,1,0,1
6,1,1.009,1,0,2,0,1,1,0
6,1,0.628,0,0,3,1,0,1,0
6,1,0.598,1,0,4,0,1,1,0
6,1,0.75,1,1,5,1,0,1,1
6,1,0.571,1,0,6,0,1,1,1
6,1,0.669,1,1,7,1,0,1,1
6,1,0.68,0,1,8,0,1,1,1
6,1,0.714,1,0,9,0,1,0,1
6,1,0.681,1,1,10,1,0,0,1
6,2,0.63,1,1,3,1,0,1,0
6,2,0.829,0,0,4,1,0,1,0
6,2,0.87,1,0,5,0,1,1,1
6,2,1.072,1,0,6,0,1,1,1
6,2,0.519,1,1,7,1,0,1,1
6,2,0.786,0,1,8,0,1,1,1
6,2,0.95,0,0,9,1,0,0,1
6,2,0.847,1,0,10,0,1,0,1
6,3,0.491,1,1,4,1,0,1,0
6,3,0.503,1,1,5,1,0,1,1
6,3,0.842,1,0,6,0,1,1,1
6,3,0.845,1,0,7,0,1,1,1
6,3,0.93,1,0,8,0,1,1,1
6,3,0.736,1,1,9,1,0,0,1
6,3,1.129,1,1,10,1,0,0,1
6,2,0.483,1,1,3,1,0,1,0
6,2,0.632,1,0,4,0,1,1,0
6,2,0.927,1,0,5,0,1,1,1
6,2,0.836,1,1,6,1,0,1,1
6,2,0.895,1,0,7,0,1,1,1
6,2,0.782,1,0,8,0,1,1,1
6,2,0.514,1,1,9,1,0,0,1
6,2,1.124,1,1,10,1,0,0,1
6,1,1.032,1,0,2,0,1,1,0
6,1,0.746,1,1,3,1,0,1,0
6,1,0.558,1,0,4,0,1,1,0
6,1,0.69,1,0,5,0,1,1,1
6,1,0.508,0,0,6,1,0,1,1
6,1,0.616,1,1,7,1,0,1,1
6,1,0.58,1,0,8,0,1,1,1
6,1,0.861,1,0,9,0,1,0,1
6,1,0.637,1,1,10,1,0,0,1
6,3,0.72,1,0,4,0,1,1,0
6,3,0.85,1,0,5,0,1,1,1
6,3,0.766,1,1,6,1,0,1,1
6,3,0.79,1,1,7,1,0,1,1
6,3,0.642,1,1,8,1,0,1,1
6,3,0.855,1,1,9,1,0,0,1
6,3,1.007,1,0,10,0,0,0,1
6,1,0.895,1,1,2,1,0,1,0
6,1,0.583,1,1,3,1,0,1,0
6,1,0.491,1,0,4,0,1,1,0
6,1,0.74,1,0,5,0,1,1,1
6,1,0.599,1,0,6,0,1,1,1
6,1,0.818,1,0,7,0,1,1,1
6,1,0.568,1,0,8,0,1,1,1
6,1,0.587,1,1,9,1,0,0,1
6,1,0.607,1,1,10,1,0,0,1
6,3,0.549,1,1,4,1,0,1,0
6,3,0.531,1,1,5,1,0,1,1
6,3,0.626,1,0,6,0,1,1,1
6,3,0.661,1,1,7,1,0,1,1
6,3,0.694,1,0,8,0,1,1,1
6,3,0.873,1,0,9,0,1,0,1
6,3,0.885,1,1,10,1,0,0,1
6,2,0.808,1,1,3,1,0,1,0
6,2,0.654,1,0,4,0,1,1,0
6,2,0.839,0,0,5,1,0,1,1
6,2,0.762,1,0,6,0,1,1,1
6,2,0.659,1,1,7,1,0,1,1
6,2,0.691,1,0,8,0,1,1,1
6,2,0.621,1,0,9,0,1,0,1
6,2,0.487,1,1,10,1,0,0,1
6,2,0.488,1,1,3,1,0,1,0
6,2,0.669,1,0,4,0,1,1,0
6,2,0.541,1,1,5,1,0,1,1
6,2,0.671,1,0,6,0,1,1,1
6,2,0.744,1,0,7,0,1,1,1
6,2,0.714,1,0,8,0,1,1,1
6,2,0.495,1,1,9,1,0,0,1
6,2,1.105,1,1,10,1,0,0,1
6,3,0.624,1,1,4,1,0,1,0
6,3,0.563,1,1,5,1,0,1,1
6,3,0.629,1,0,6,0,1,1,1
6,3,0.511,1,1,7,1,0,1,1
6,3,0.546,1,1,8,1,0,1,1
6,3,1.094,1,0,9,0,0,0,1
6,3,1.144,1,0,10,0,1,0,1
6,2,0.642,1,0,3,0,1,1,0
6,2,0.473,1,1,4,1,0,1,0
6,2,0.687,1,1,5,1,0,1,1
6,2,0.544,1,0,6,0,1,1,1
6,2,0.48,1,1,7,1,0,1,1
6,2,0.816,1,0,8,0,1,1,1
6,2,0.841,1,0,9,0,1,0,1
6,2,0.454,1,1,10,1,0,0,1
6,1,0.826,1,1,2,1,0,1,0
6,1,0.622,1,0,3,0,1,1,0
6,1,0.894,1,1,4,1,0,1,0
6,1,0.515,1,0,5,0,1,1,1
6,1,1.077,1,0,6,0,1,1,1
6,1,0.614,1,0,7,0,1,1,1
6,1,0.805,1,1,8,1,0,1,1
6,1,0.579,1,0,9,0,1,0,1
6,1,0.592,0,0,10,1,0,0,1
6,3,0.62,1,1,4,1,0,1,0
6,3,0.615,1,0,5,0,1,1,1
6,3,0.599,1,1,6,1,0,1,1
6,3,0.828,1,0,7,0,1,1,1
6,3,0.822,1,0,8,0,1,1,1
6,3,0.563,1,1,9,1,0,0,1
6,3,0.79,1,1,10,1,0,0,1
6,1,0.905,1,1,2,1,0,1,0
6,1,0.654,1,0,3,0,1,1,0
6,1,0.699,1,1,4,1,0,1,0
6,1,0.589,1,0,5,0,1,1,1
6,1,0.66,0,1,6,0,1,1,1
6,1,0.591,1,1,7,1,0,1,1
6,1,0.591,1,0,8,0,1,1,1
6,1,0.556,0,1,9,0,1,0,1
6,1,1.225,1,1,10,1,0,0,1
6,3,0.651,1,0,4,0,1,1,0
6,3,0.475,1,1,5,1,0,1,1
6,3,0.507,1,1,6,1,0,1,1
6,3,0.751,1,0,7,0,1,1,1
6,3,0.514,1,1,8,1,0,1,1
6,3,0.513,1,1,9,1,0,0,1
6,3,0.458,1,0,10,0,1,0,1
6,2,0.839,0,0,3,1,0,1,0
6,2,0.793,1,0,4,0,1,1,0
6,2,0.769,1,0,5,0,1,1,1
6,2,0.771,0,0,6,1,0,1,1
6,2,0.503,1,1,7,1,0,1,1
6,2,0.66,1,0,8,0,1,1,1
6,2,0.78,1,0,9,0,1,0,1
6,2,0.49,1,1,10,1,0,0,1
6,1,0.745,1,1,2,1,0,1,0
6,1,0.895,1,0,3,0,1,1,0
6,1,0.738,1,1,4,1,0,1,0
6,1,0.532,1,0,5,0,1,1,1
6,1,0.738,1,1,6,1,0,1,1
6,1,0.722,1,0,7,0,1,1,1
6,1,0.652,0,1,8,0,1,1,1
6,1,0.787,0,1,9,0,1,0,1
6,1,0.583,1,1,10,1,0,0,1
6,3,0.628,1,0,4,0,1,1,0
6,3,0.783,1,0,5,0,1,1,1
6,3,0.642,0,0,6,1,0,1,1
6,3,0.744,1,0,7,0,1,1,1
6,3,0.786,0,0,8,1,0,1,1
6,3,0.485,1,1,9,1,0,0,1
6,3,0.842,1,1,10,1,0,0,1
6,2,0.462,1,1,3,1,0,1,0
6,2,0.561,1,1,4,1,0,1,0
6,2,0.687,1,0,5,0,1,1,1
6,2,0.692,1,0,6,0,1,1,1
6,2,0.502,1,1,7,1,0,1,1
6,2,0.735,1,0,8,0,1,1,1
6,2,0.57,1,1,9,1,0,0,1
6,2,0.742,1,0,10,0,1,0,1
6,1,0.687,0,1,2,0,1,1,0
6,1,0.601,1,1,3,1,0,1,0
6,1,0.555,1,0,4,0,1,1,0
6,1,0.801,1,1,5,1,0,1,1
6,1,0.828,1,0,6,0,1,1,1
6,1,0.74,1,1,7,1,0,1,1
6,1,0.626,1,0,8,0,1,1,1
6,1,0.718,1,1,9,1,0,0,1
6,1,0.671,1,0,10,0,1,0,1
6,3,0.706,1,0,4,0,1,1,0
6,3,0.472,1,1,5,1,0,1,1
6,3,0.584,1,1,6,1,0,1,1
6,3,0.506,1,1,7,1,0,1,1
6,3,0.516,1,0,8,0,1,1,1
6,3,0.743,1,0,9,0,1,0,1
6,3,0.841,1,1,10,1,0,0,1
6,1,0.862,1,1,2,1,0,1,0
6,1,0.632,1,1,3,1,0,1,0
6,1,0.589,1,0,4,0,1,1,0
6,1,0.598,1,1,5,1,0,1,1
6,1,0.74,1,0,6,0,1,1,1
6,1,0.769,1,0,7,0,1,1,1
6,1,1.097,1,1,9,1,0,0,1
6,1,0.852,1,0,10,0,1,0,1
6,3,0.785,1,1,4,1,0,1,0
6,3,0.588,1,0,5,0,1,1,1
6,3,0.97,1,0,6,0,1,1,1
6,3,0.643,1,1,7,1,0,1,1
6,3,0.482,1,1,8,1,0,1,1
6,3,0.619,1,0,9,0,1,0,1
6,3,0.524,1,1,10,1,0,0,1
6,2,0.64,1,0,3,0,1,1,0
6,2,0.618,1,0,4,0,1,1,0
6,2,0.546,1,1,5,1,0,1,1
6,2,0.784,1,1,6,1,0,1,1
6,2,0.988,1,1,7,1,0,1,1
6,2,0.734,1,0,8,0,1,1,1
6,2,0.749,1,0,9,0,1,0,1
6,2,0.547,1,1,10,1,0,0,1
6,1,0.691,1,0,2,0,1,1,0
6,1,0.638,1,1,3,1,0,1,0
6,1,0.578,1,1,4,1,0,1,0
6,1,0.671,1,0,5,0,1,1,1
6,1,0.649,0,1,6,0,1,1,1
6,1,0.755,1,1,7,1,0,1,1
6,1,0.842,1,0,8,0,1,1,1
6,1,0.728,1,1,9,1,0,0,1
6,1,0.774,1,0,10,0,1,0,1
6,2,0.623,1,1,3,1,0,1,0
6,2,0.798,1,0,4,0,1,1,0
6,2,0.528,1,1,5,1,0,1,1
6,2,0.791,1,0,6,0,1,1,1
6,2,0.587,1,1,7,1,0,1,1
6,2,0.891,1,0,8,0,1,1,1
6,2,0.55,1,1,9,1,0,0,1
6,2,0.759,1,0,10,0,1,0,1
7,1,0.978,1,0,2,0,1,1,0
7,1,0.766,1,1,3,1,0,1,0
7,1,0.553,1,0,4,0,1,1,0
7,1,0.856,1,0,5,0,1,1,1
7,1,0.778,1,1,6,1,0,1,1
7,1,0.629,1,1,7,1,0,1,1
7,1,1.013,1,0,8,0,1,1,1
7,1,0.851,0,1,9,0,1,0,1
7,1,1.018,1,1,10,1,0,0,1
7,2,0.846,0,0,3,1,0,1,0
7,2,0.902,1,0,4,0,1,1,0
7,2,0.875,1,1,5,1,0,1,1
7,2,0.915,1,0,6,0,1,1,1
7,2,0.88,1,0,7,0,1,1,1
7,2,0.965,1,0,8,0,1,1,1
7,2,0.671,1,1,9,1,0,0,1
7,2,1.104,1,1,10,1,0,0,1
7,3,1.305,1,0,4,0,1,1,0
7,3,0.928,1,1,5,1,0,1,1
7,3,0.752,1,1,6,1,0,1,1
7,3,0.86,1,1,7,1,0,1,1
7,3,0.784,1,0,8,0,1,1,1
7,3,0.898,1,0,9,0,1,0,1
7,3,1.025,1,1,10,1,0,0,1
7,2,1.201,1,1,3,1,0,1,0
7,2,1.076,1,0,4,0,1,1,0
7,2,0.85,1,0,5,0,1,1,1
7,2,0.678,1,1,6,1,0,1,1
7,2,0.672,1,1,7,1,0,1,1
7,2,0.569,1,0,8,0,1,1,1
7,2,0.906,1,0,9,0,1,0,1
7,2,0.631,1,1,10,1,0,0,1
7,1,0.633,1,1,2,1,0,1,0
7,1,0.622,1,0,3,0,1,1,0
7,1,0.659,1,1,4,1,0,1,0
7,1,0.784,1,0,5,0,1,1,1
7,1,0.53,1,1,6,1,0,1,1
7,1,0.815,1,0,7,0,1,1,1
7,1,1.047,1,0,8,0,1,1,1
7,1,1.159,1,0,9,0,1,0,1
7,1,0.977,1,1,10,1,0,0,1
7,3,1.012,1,0,4,0,1,1,0
7,3,0.625,1,1,5,1,0,1,1
7,3,0.778,0,0,6,1,0,1,1
7,3,0.968,1,0,7,0,1,1,1
7,3,1.11,1,1,8,1,0,1,1
7,3,0.776,1,1,9,1,0,0,1
7,3,0.965,1,0,10,0,1,0,1
7,1,0.779,1,1,2,1,0,1,0
7,1,0.666,1,0,3,0,1,1,0
7,1,0.527,1,1,4,1,0,1,0
7,1,0.713,1,0,5,0,1,1,1
7,1,0.908,1,0,6,0,1,1,1
7,1,0.806,1,1,7,1,0,1,1
7,1,0.756,1,0,8,0,1,1,1
7,1,0.787,1,0,9,0,1,0,1
7,1,0.53,1,1,10,1,0,0,1
7,3,0.877,1,1,4,1,0,1,0
7,3,0.864,1,1,5,1,0,1,1
7,3,0.658,1,0,6,0,1,1,1
7,3,1.424,1,1,7,1,0,1,1
7,3,0.629,0,0,8,1,0,1,1
7,3,1.22,0,1,9,0,0,0,1
7,2,0.632,1,1,3,1,0,1,0
7,2,0.799,1,1,4,1,0,1,0
7,2,0.733,1,0,5,0,1,1,1
7,2,0.822,1,0,6,0,1,1,1
7,2,0.663,1,1,7,1,0,1,1
7,2,0.726,1,0,8,0,1,1,1
7,2,0.811,1,1,9,1,0,0,1
7,2,0.882,1,0,10,0,1,0,1
7,2,0.913,1,0,3,0,1,1,0
7,2,0.699,1,1,4,1,0,1,0
7,2,0.959,1,1,5,1,0,1,1
7,2,0.8,1,0,6,0,1,1,1
7,2,0.736,1,1,7,1,0,1,1
7,2,0.797,1,0,8,0,1,1,1
7,2,0.873,1,0,9,0,1,0,1
7,2,0.567,1,1,10,1,0,0,1
7,3,0.938,1,1,4,1,0,1,0
7,3,0.869,1,0,5,0,1,1,1
7,3,0.891,1,0,6,0,1,1,1
7,3,0.694,1,1,8,1,0,1,1
7,3,0.699,1,0,9,0,1,0,1
7,3,1.01,1,1,10,1,0,0,1
7,2,0.607,1,1,3,1,0,1,0
7,2,0.847,1,1,4,1,0,1,0
7,2,0.989,1,0,6,0,1,1,1
7,2,0.592,1,1,7,1,0,1,1
7,2,0.66,1,0,8,0,1,1,1
7,2,0.744,1,1,9,1,0,0,1
7,2,0.61,1,0,10,0,1,0,1
7,1,0.589,1,1,2,1,0,1,0
7,1,0.409,1,0,3,0,1,1,0
7,1,0.513,1,1,4,1,0,1,0
7,1,0.65,1,0,5,0,1,1,1
7,1,0.859,1,0,6,0,1,1,1
7,1,0.871,1,0,7,0,1,1,1
7,1,0.865,1,1,8,1,0,1,1
7,1,0.875,1,0,9,0,1,0,1
7,1,0.645,1,1,10,1,0,0,1
7,3,0.864,1,0,4,0,1,1,0
7,3,0.834,1,0,5,0,1,1,1
7,3,0.689,1,1,6,1,0,1,1
7,3,0.647,1,0,7,0,1,1,1
7,3,0.787,1,1,8,1,0,1,1
7,3,1.099,1,1,10,1,0,0,1
7,1,0.656,1,1,2,1,0,1,0
7,1,0.872,1,1,3,1,0,1,0
7,1,0.706,1,0,4,0,1,1,0
7,1,0.823,1,1,5,1,0,1,1
7,1,0.843,1,0,6,0,1,1,1
7,1,0.753,1,0,7,0,1,1,1
7,1,0.872,1,0,8,0,1,1,1
7,1,0.727,1,1,9,1,0,0,1
7,1,0.714,1,0,10,0,1,0,1
7,3,0.572,1,1,4,1,0,1,0
7,3,0.788,1,1,5,1,0,1,1
7,3,0.705,1,0,6,0,1,1,1
7,3,0.633,1,0,7,0,1,1,1
7,3,0.659,0,1,8,0,1,1,1
7,3,1.078,1,1,9,1,0,0,1
7,3,1.26,1,1,10,1,0,0,1
7,2,0.593,1,1,3,1,0,1,0
7,2,0.65,1,0,4,0,1,1,0
7,2,0.683,1,1,5,1,0,1,1
7,2,0.699,1,0,6,0,1,1,1
7,2,0.846,1,1,7,1,0,1,1
7,2,1.197,1,0,8,0,1,1,1
7,2,0.851,1,0,9,0,1,0,1
7,2,0.772,1,1,10,1,0,0,1
7,1,1.15,1,0,2,0,1,1,0
7,1,0.671,1,1,3,1,0,1,0
7,1,0.496,1,0,4,0,1,1,0
7,1,0.887,1,1,5,1,0,1,1
7,1,0.783,1,0,6,0,1,1,1
7,1,0.546,1,1,7,1,0,1,1
7,1,0.826,1,0,8,0,1,1,1
7,1,0.611,1,1,9,1,0,0,1
7,1,0.79,1,0,10,0,1,0,1
7,3,1.488,0,0,4,1,0,1,0
7,3,0.852,1,1,5,1,0,1,1
7,3,0.771,1,0,6,0,1,1,1
7,3,0.977,0,0,7,1,0,1,1
7,3,1.108,1,0,8,0,1,1,1
7,3,0.908,1,1,10,1,0,0,1
7,2,0.627,1,1,3,1,0,1,0
7,2,0.626,1,0,4,0,1,1,0
7,2,0.576,1,1,5,1,0,1,1
7,2,0.65,1,0,6,0,1,1,1
7,2,1.272,1,1,7,1,0,1,1
7,2,1.245,1,0,8,0,1,1,1
7,2,0.758,1,1,9,1,0,0,1
7,2,0.637,1,0,10,0,1,0,1
7,1,0.792,1,0,2,0,1,1,0
7,1,0.612,1,1,3,1,0,1,0
7,1,0.797,1,1,4,1,0,1,0
7,1,0.68,1,0,5,0,1,1,1
7,1,0.64,1,0,6,0,1,1,1
7,1,0.715,1,1,7,1,0,1,1
7,1,0.711,1,0,8,0,1,1,1
7,1,0.807,1,1,9,1,0,0,1
7,1,0.698,1,0,10,0,1,0,1
7,3,0.752,1,1,4,1,0,1,0
7,3,1.099,1,0,5,0,1,1,1
7,3,1.158,1,1,6,1,0,1,1
7,3,1.152,1,0,7,0,1,1,1
7,3,0.885,1,0,8,0,1,1,1
7,3,0.755,1,1,9,1,0,0,1
7,3,1.107,0,0,10,1,0,0,1
7,1,0.557,1,1,2,1,0,1,0
7,1,0.706,1,1,3,1,0,1,0
7,1,0.681,1,0,4,0,1,1,0
7,1,0.762,1,0,5,0,1,1,1
7,1,0.782,1,0,6,0,1,1,1
7,1,0.806,1,0,7,0,1,1,1
7,1,0.889,1,0,8,0,1,1,1
7,1,0.767,1,1,9,1,0,0,1
7,1,0.701,1,1,10,1,0,0,1
7,3,0.926,1,0,4,0,1,1,0
7,3,0.874,1,0,5,0,1,1,1
7,3,0.747,1,1,6,1,0,1,1
7,3,1.31,1,1,7,1,0,1,1
7,3,1.126,1,1,8,1,0,1,1
7,3,1.155,1,1,9,1,0,0,1
7,3,1.144,0,1,10,0,0,0,1
7,2,0.633,1,1,3,1,0,1,0
7,2,0.789,1,0,4,0,1,1,0
7,2,1.118,1,0,5,0,1,1,1
7,2,0.794,1,1,6,1,0,1,1
7,2,0.75,1,0,7,0,1,1,1
7,2,0.94,1,0,8,0,1,1,1
7,2,0.781,1,1,9,1,0,0,1
7,2,0.868,1,1,10,1,0,0,1
7,1,0.697,1,0,2,0,1,1,0
7,1,0.614,1,1,3,1,0,1,0
7,1,0.791,1,0,4,0,1,1,0
7,1,0.672,1,1,5,1,0,1,1
7,1,0.661,1,0,6,0,1,1,1
7,1,0.728,1,1,7,1,0,1,1
7,1,0.666,1,0,8,0,1,1,1
7,1,0.677,1,0,9,0,1,0,1
7,1,0.65,1,1,10,1,0,0,1
7,2,0.834,1,0,3,0,1,1,0
7,2,1.182,1,0,4,0,1,1,0
7,2,0.62,1,1,5,1,0,1,1
7,2,1.418,0,0,6,1,0,1,1
7,2,0.896,1,1,7,1,0,1,1
7,2,0.882,1,0,8,0,1,1,1
7,2,1.037,1,0,9,0,1,0,1
7,2,1.068,1,1,10,1,0,0,1
8,1,1.062,1,1,2,1,0,1,0
8,1,1.199,1,1,4,1,0,1,0
8,1,1.221,1,0,6,0,1,1,1
8,1,1.126,1,0,7,0,1,1,1
8,1,1.082,1,1,8,1,0,1,1
8,1,1.041,1,0,9,0,1,0,1
8,1,0.884,1,1,10,1,0,0,1
8,2,0.714,1,1,3,1,0,1,0
8,2,0.693,1,0,4,0,1,1,0
8,2,0.804,1,0,5,0,1,1,1
8,2,0.685,1,1,6,1,0,1,1
8,2,0.876,1,0,7,0,1,1,1
8,2,0.978,1,0,8,0,1,1,1
8,2,0.351,1,1,10,1,0,0,1
8,3,0.511,1,1,4,1,0,1,0
8,3,0.648,1,0,5,0,1,1,1
8,3,0.822,1,0,6,0,1,1,1
8,3,0.722,1,1,7,1,0,1,1
8,3,0.788,0,0,8,1,0,1,1
8,3,1.363,1,0,9,0,1,0,1
8,3,0.348,1,1,10,1,0,0,1
8,2,1.352,1,0,3,0,1,1,0
8,2,1.147,1,0,4,0,1,1,0
8,2,1.381,1,1,5,1,0,1,1
8,2,0.724,0,0,6,1,0,1,1
8,2,0.828,1,1,7,1,0,1,1
8,2,0.796,1,0,8,0,1,1,1
8,2,0.528,1,0,9,0,1,0,1
8,2,0.981,1,1,10,1,0,0,1
8,1,0.818,0,1,2,0,1,1,0
8,1,0.861,1,1,3,1,0,1,0
8,1,0.765,1,0,4,0,1,1,0
8,1,0.674,1,0,6,0,1,1,1
8,1,0.868,1,1,7,1,0,1,1
8,1,0.724,1,0,8,0,1,1,1
8,1,0.511,1,1,9,1,0,0,1
8,1,0.513,1,0,10,0,1,0,1
8,3,0.625,1,1,4,1,0,1,0
8,3,0.662,0,0,5,1,0,1,1
8,3,1.177,0,1,6,0,1,1,1
8,3,0.646,0,0,7,1,0,1,1
8,3,1.001,1,0,8,0,1,1,1
8,3,1.021,1,0,9,0,1,0,1
8,3,0.734,1,1,10,1,0,0,1
8,1,1.316,1,1,2,1,0,1,0
8,1,0.878,1,0,3,0,1,1,0
8,1,0.663,1,1,4,1,0,1,0
8,1,0.905,1,0,5,0,1,1,1
8,1,0.765,1,1,6,1,0,1,1
8,1,0.731,1,0,7,0,1,1,1
8,1,0.692,1,0,8,0,1,1,1
8,1,0.775,1,0,9,0,1,0,1
8,1,0.764,1,1,10,1,0,0,1
8,3,0.97,1,0,4,0,1,1,0
8,3,1.355,1,1,6,1,0,1,1
8,3,0.992,1,0,8,0,1,1,1
8,3,1.45,1,0,9,0,1,0,1
8,3,0.884,1,1,10,1,0,0,1
8,2,0.018,1,0,4,0,1,1,0
8,2,1.073,0,1,7,0,1,1,1
8,2,1.334,1,1,10,1,0,0,1
8,2,1.011,1,0,3,0,1,1,0
8,2,0.65,1,1,4,1,0,1,0
8,2,0.842,1,1,5,1,0,1,1
8,2,0.789,1,0,6,0,1,1,1
8,2,1.113,1,1,7,1,0,1,1
8,2,0.963,1,0,9,0,1,0,1
8,2,0.646,1,1,10,1,0,0,1
8,3,0.691,1,0,4,0,1,1,0
8,3,1.004,1,1,5,1,0,1,1
8,3,0.924,0,0,6,1,0,1,1
8,3,0.877,1,0,7,0,1,1,1
8,3,1.097,1,1,8,1,0,1,1
8,3,1.315,1,1,9,1,0,0,1
8,3,1.29,0,1,10,0,1,0,1
8,2,0.955,0,0,3,1,0,1,0
8,2,1.018,1,0,4,0,1,1,0
8,2,0.662,1,1,5,1,0,1,1
8,2,1.474,0,1,6,0,1,1,1
8,2,1.39,1,0,8,0,1,1,1
8,2,1.046,1,1,9,1,0,0,1
8,2,0.92,1,0,10,0,1,0,1
8,1,1.084,1,1,2,1,0,1,0
8,1,0.836,1,1,3,1,0,1,0
8,1,0.662,1,0,4,0,1,1,0
8,1,0.691,1,0,5,0,1,1,1
8,1,0.748,1,0,6,0,1,1,1
8,1,0.714,1,0,7,0,1,1,1
8,1,0.625,1,0,8,0,1,1,1
8,1,0.82,1,1,9,1,0,0,1
8,1,0.623,1,1,10,1,0,0,1
8,3,0.651,1,1,4,1,0,1,0
8,3,0.621,0,0,5,1,0,1,1
8,3,1.005,0,1,6,0,1,1,1
8,3,1.103,0,0,8,1,0,1,1
8,1,0.962,1,1,2,1,0,1,0
8,1,0.764,1,0,3,0,1,1,0
8,1,0.581,1,1,4,1,0,1,0
8,1,0.943,1,0,5,0,1,1,1
8,1,1.123,1,0,6,0,1,1,1
8,1,0.938,1,1,7,1,0,1,1
8,1,0.97,1,0,8,0,1,1,1
8,1,0.877,1,0,9,0,1,0,1
8,1,0.701,1,1,10,1,0,0,1
8,3,0.889,1,0,4,0,1,1,0
8,3,0.967,1,0,5,0,1,1,1
8,3,1.137,1,1,6,1,0,1,1
8,3,1.369,1,1,7,1,0,1,1
8,3,1.107,1,1,8,1,0,1,1
8,3,1.473,1,0,10,0,0,0,1
8,2,1.236,0,0,3,1,0,1,0
8,2,0.334,1,0,5,0,1,1,1
8,2,1.009,1,1,7,1,0,1,1
8,2,1.02,1,0,8,0,1,1,1
8,2,0.928,1,1,9,1,0,0,1
8,2,0.933,1,0,10,0,1,0,1
8,1,0.851,1,1,3,1,0,1,0
8,1,1.011,1,1,4,1,0,1,0
8,1,0.724,1,0,5,0,1,1,1
8,1,1.244,1,0,6,0,1,1,1
8,1,0.94,1,1,7,1,0,1,1
8,1,0.876,1,0,8,0,1,1,1
8,1,0.676,1,1,9,1,0,0,1
8,1,0.971,1,0,10,0,1,0,1
8,3,0.683,1,0,4,0,1,1,0
8,3,0.766,1,0,5,0,1,1,1
8,3,0.978,0,0,6,1,0,1,1
8,3,0.847,1,0,7,0,1,1,1
8,2,0.663,0,0,3,1,0,1,0
8,2,0.685,1,0,4,0,1,1,0
8,2,0.657,1,0,5,0,1,1,1
8,2,0.944,0,0,6,1,0,1,1
8,2,0.912,1,1,7,1,0,1,1
8,2,0.557,1,0,8,0,1,1,1
8,2,0.85,1,0,9,0,1,0,1
8,2,1.177,1,1,10,1,0,0,1
8,1,1.022,1,0,2,0,1,1,0
8,1,0.744,1,1,3,1,0,1,0
8,1,0.807,1,0,4,0,1,1,0
8,1,0.651,1,0,5,0,1,1,1
8,1,0.5,1,1,6,1,0,1,1
8,1,0.724,1,1,7,1,0,1,1
8,1,0.633,1,0,8,0,1,1,1
8,1,0.927,1,0,9,0,1,0,1
8,1,0.977,1,1,10,1,0,0,1
8,3,1.07,1,1,4,1,0,1,0
8,3,0.95,0,0,5,1,0,1,1
8,3,0.905,1,0,6,0,1,1,1
8,3,1.159,1,0,7,0,1,1,1
8,3,1.361,1,0,8,0,1,1,1
8,3,1.147,1,1,9,1,0,0,1
8,3,1.399,1,1,10,1,0,0,1
8,1,1.432,1,0,2,0,1,1,0
8,1,0.738,1,1,3,1,0,1,0
8,1,0.711,1,0,4,0,1,1,0
8,1,0.576,1,1,5,1,0,1,1
8,1,0.65,1,0,6,0,1,1,1
8,1,0.558,1,1,7,1,0,1,1
8,1,0.76,1,0,8,0,1,1,1
8,1,0.793,1,0,9,0,1,0,1
8,1,1.008,1,1,10,1,0,0,1
8,3,0.746,1,1,4,1,0,1,0
8,3,0.637,1,0,5,0,1,1,1
8,3,1.152,1,1,6,1,0,1,1
8,3,0.817,1,0,7,0,1,1,1
8,3,0.581,1,0,8,0,1,1,1
8,3,1.001,1,1,9,1,0,0,1
8,3,1.057,1,1,10,1,0,0,1
8,2,1.114,0,0,3,1,0,1,0
8,2,1.413,1,0,4,0,1,1,0
8,2,1.477,1,1,5,1,0,1,1
8,2,0.586,1,0,6,0,1,1,1
8,2,1.156,1,1,7,1,0,1,1
8,2,0.95,1,0,8,0,1,1,1
8,2,0.62,1,0,9,0,1,0,1
8,2,0.925,1,1,10,1,0,0,1
8,1,0.771,1,1,2,1,0,1,0
8,1,0.784,1,1,3,1,0,1,0
8,1,0.751,1,0,4,0,1,1,0
8,1,0.782,1,1,5,1,0,1,1
8,1,0.641,1,0,6,0,1,1,1
8,1,1.257,1,0,7,0,1,1,1
8,1,1.075,1,0,8,0,1,1,1
8,1,0.89,1,1,9,1,0,0,1
8,1,1.306,1,0,10,0,1,0,1
8,2,0.983,0,0,3,1,0,1,0
8,2,1.215,1,1,4,1,0,1,0
8,2,1.257,1,0,5,0,1,1,1
8,2,1.219,1,0,6,0,1,1,1
8,2,1.068,0,0,7,1,0,1,1
8,2,1.452,1,0,8,0,1,1,1
8,2,1.065,1,1,9,1,0,0,1
8,2,0.635,1,0,10,0,1,0,1
9,1,0.95,1,0,2,0,1,1,0
9,1,0.757,1,1,3,1,0,1,0
9,1,0.887,1,0,4,0,1,1,0
9,1,1.244,1,0,5,0,1,1,1
9,1,0.589,1,1,6,1,0,1,1
9,1,0.951,1,1,7,1,0,1,1
9,1,0.626,1,0,8,0,1,1,1
9,1,0.991,1,0,9,0,1,0,1
9,1,0.893,1,1,10,1,0,0,1
9,2,0.512,1,1,3,1,0,1,0
9,2,0.663,1,0,4,0,1,1,0
9,2,0.617,1,0,5,0,1,1,1
9,2,0.466,1,1,6,1,0,1,1
9,2,0.624,1,0,7,0,1,1,1
9,2,0.454,1,0,8,0,1,1,1
9,2,0.413,0,0,9,1,0,0,1
9,2,1.19,0,0,10,1,0,0,1
9,3,0.694,1,0,4,0,1,1,0
9,3,1.145,1,0,5,0,1,1,1
9,3,0.525,1,1,6,1,0,1,1
9,3,1.318,1,1,7,1,0,1,1
9,3,1.02,0,0,8,1,0,1,1
9,3,0.743,0,0,9,1,0,0,1
9,3,0.927,1,0,10,0,0,0,1
9,2,0.522,1,1,3,1,0,1,0
9,2,0.645,1,0,4,0,1,1,0
9,2,0.751,1,0,5,0,1,1,1
9,2,0.965,1,1,6,1,0,1,1
9,2,0.749,0,0,7,1,0,1,1
9,2,0.757,1,0,8,0,1,1,1
9,2,0.762,1,0,9,0,1,0,1
9,2,0.461,1,1,10,1,0,0,1
9,1,0.73,1,0,2,0,1,1,0
9,1,0.497,1,1,3,1,0,1,0
9,1,1.113,1,0,4,0,1,1,0
9,1,0.715,1,1,5,1,0,1,1
9,1,0.479,1,0,6,0,1,1,1
9,1,0.419,0,0,7,1,0,1,1
9,1,0.895,1,0,8,0,1,1,1
9,1,0.649,1,1,9,1,0,0,1
9,1,0.971,1,0,10,0,1,0,1
9,3,0.614,1,1,4,1,0,1,0
9,3,1.165,1,1,5,1,0,1,1
9,3,0.801,1,0,6,0,1,1,1
9,3,1.158,0,1,8,0,1,1,1
9,3,1.113,1,0,9,0,1,0,1
9,3,0.953,0,0,10,1,0,0,1
9,1,0.474,1,1,2,1,0,1,0
9,1,1.181,1,0,3,0,1,1,0
9,1,0.469,1,1,4,1,0,1,0
9,1,0.945,1,0,5,0,1,1,1
9,1,0.685,1,0,6,0,1,1,1
9,1,0.753,1,0,7,0,1,1,1
9,1,0.442,1,1,8,1,0,1,1
9,1,0.481,1,0,9,0,1,0,1
9,1,0.548,1,1,10,1,0,0,1
9,3,0.517,1,1,4,1,0,1,0
9,3,0.861,0,0,5,1,0,1,1
9,3,1.293,1,0,6,0,1,1,1
9,3,1.22,1,0,7,0,1,1,1
9,3,0.556,1,1,9,1,0,0,1
9,3,0.566,0,0,10,1,0,0,1
9,2,0.514,1,1,3,1,0,1,0
9,2,0.888,1,1,4,1,0,1,0
9,2,0.645,1,0,5,0,1,1,1
9,2,0.521,1,0,6,0,1,1,1
9,2,0.496,1,1,7,1,0,1,1
9,2,0.232,1,0,8,0,1,1,1
9,2,0.585,1,1,9,1,0,0,1
9,2,0.411,1,0,10,0,1,0,1
9,2,0.645,1,1,3,1,0,1,0
9,2,0.641,1,0,4,0,1,1,0
9,2,1.32,1,0,6,0,1,1,1
9,2,0.66,1,1,7,1,0,1,1
9,2,0.852,1,0,8,0,1,1,1
9,2,1.07,1,0,9,0,1,0,1
9,2,0.523,1,1,10,1,0,0,1
9,3,0.756,1,1,4,1,0,1,0
9,3,0.766,1,1,5,1,0,1,1
9,3,0.597,1,0,6,0,1,1,1
9,3,1.057,1,1,7,1,0,1,1
9,3,1.176,1,1,8,1,0,1,1
9,3,0.995,1,0,9,0,0,0,1
9,3,1.079,1,0,10,0,1,0,1
9,2,0.789,1,0,3,0,1,1,0
9,2,0.819,1,0,4,0,1,1,0
9,2,0.901,1,1,5,1,0,1,1
9,2,1.162,1,1,6,1,0,1,1
9,2,0.192,1,0,8,0,1,1,1
9,2,0.518,1,0,9,0,1,0,1
9,2,0.498,1,1,10,1,0,0,1
9,1,1.22,1,1,2,1,0,1,0
9,1,0.848,1,1,3,1,0,1,0
9,1,0.636,1,0,4,0,1,1,0
9,1,0.666,1,0,5,0,1,1,1
9,1,0.795,1,0,6,0,1,1,1
9,1,0.695,1,0,7,0,1,1,1
9,1,0.724,1,0,8,0,1,1,1
9,1,0.889,1,1,9,1,0,0,1
9,1,0.657,1,1,10,1,0,0,1
9,3,0.735,1,0,4,0,1,1,0
9,3,0.606,1,1,5,1,0,1,1
9,3,0.582,1,1,6,1,0,1,1
9,3,0.688,1,0,7,0,1,1,1
9,3,0.906,0,0,8,1,0,1,1
9,3,0.78,1,1,9,1,0,0,1
9,3,0.386,1,0,10,0,1,0,1
9,1,0.678,1,1,2,1,0,1,0
9,1,1.068,1,0,3,0,1,1,0
9,1,0.526,1,1,4,1,0,1,0
9,1,0.736,1,0,5,0,1,1,1
9,1,0.766,1,0,6,0,1,1,1
9,1,0.531,1,1,7,1,0,1,1
9,1,0.637,1,0,8,0,1,1,1
9,1,0.728,1,0,9,0,1,0,1
9,1,0.575,1,1,10,1,0,0,1
9,3,0.939,1,1,4,1,0,1,0
9,3,1.052,1,0,5,0,1,1,1
9,3,0.898,1,0,7,0,1,1,1
9,3,0.684,1,0,8,0,1,1,1
9,3,1.197,1,1,9,1,0,0,1
9,3,0.341,0,0,10,1,0,0,1
9,2,0.547,1,1,3,1,0,1,0
9,2,0.792,1,0,4,0,1,1,0
9,2,1.047,1,1,5,1,0,1,1
9,2,1.315,1,0,6,0,1,1,1
9,2,0.98,1,1,7,1,0,1,1
9,2,0.662,1,0,8,0,1,1,1
9,2,0.911,1,1,9,1,0,0,1
9,2,0.539,1,0,10,0,1,0,1
9,1,0.591,1,1,2,1,0,1,0
9,1,0.69,1,0,3,0,1,1,0
9,1,0.489,1,1,4,1,0,1,0
9,1,0.627,1,0,5,0,1,1,1
9,1,0.573,1,1,6,1,0,1,1
9,1,0.8,1,0,7,0,1,1,1
9,1,0.601,0,1,8,0,1,1,1
9,1,0.736,1,0,9,0,1,0,1
9,1,0.752,1,1,10,1,0,0,1
9,3,0.647,1,0,4,0,1,1,0
9,3,0.542,1,1,5,1,0,1,1
9,3,0.556,1,1,6,1,0,1,1
9,3,1.198,0,0,7,1,0,1,1
9,3,1.024,1,0,8,0,1,1,1
9,3,0.799,1,0,9,0,1,0,1
9,3,0.561,1,1,10,1,0,0,1
9,2,0.589,1,1,3,1,0,1,0
9,2,0.973,1,1,4,1,0,1,0
9,2,0.901,1,0,5,0,1,1,1
9,2,0.654,1,0,6,0,1,1,1
9,2,0.548,1,1,7,1,0,1,1
9,2,0.283,1,0,8,0,1,1,1
9,2,0.719,1,1,9,1,0,0,1
9,2,0.929,1,0,10,0,1,0,1
9,1,0.629,1,0,2,0,1,1,0
9,1,0.946,1,1,3,1,0,1,0
9,1,0.832,1,1,4,1,0,1,0
9,1,0.678,1,0,5,0,1,1,1
9,1,0.671,1,0,6,0,1,1,1
9,1,0.874,1,1,7,1,0,1,1
9,1,0.849,1,0,8,0,1,1,1
9,1,0.559,1,1,9,1,0,0,1
9,1,0.919,1,0,10,0,1,0,1
9,3,0.829,1,1,4,1,0,1,0
9,3,1.255,1,0,5,0,1,1,1
9,3,0.702,1,0,6,0,1,1,1
9,3,0.936,1,1,7,1,0,1,1
9,3,1.484,0,0,8,1,0,1,1
9,3,1.491,1,0,9,0,1,0,1
9,3,0.921,1,1,10,1,0,0,1
9,1,0.391,0,0,2,1,0,1,0
9,1,0.857,1,1,3,1,0,1,0
9,1,0.669,1,0,4,0,1,1,0
9,1,0.505,1,1,5,1,0,1,1
9,1,0.665,1,0,6,0,1,1,1
9,1,0.691,1,0,7,0,1,1,1
9,1,0.775,1,0,8,0,1,1,1
9,1,0.531,1,1,9,1,0,0,1
9,1,0.535,1,0,10,0,1,0,1
9,3,0.838,1,0,4,0,1,1,0
9,3,0.719,1,0,5,0,1,1,1
9,3,0.626,1,1,6,1,0,1,1
9,3,0.967,1,0,7,0,1,1,1
9,3,1.101,1,1,8,1,0,1,1
9,3,0.417,0,0,9,1,0,0,1
9,3,0.626,0,0,10,1,0,0,1
9,2,0.524,1,1,3,1,0,1,0
9,2,0.644,1,0,4,0,1,1,0
9,2,0.99,1,0,6,0,1,1,1
9,2,0.939,1,0,7,0,1,1,1
9,2,0.943,1,0,8,0,1,1,1
9,2,0.721,1,1,9,1,0,0,1
9,2,1.01,1,1,10,1,0,0,1
9,1,0.634,1,0,2,0,1,1,0
9,1,0.529,1,1,3,1,0,1,0
9,1,0.736,0,1,4,0,1,1,0
9,1,0.802,1,1,5,1,0,1,1
9,1,0.867,1,0,6,0,1,1,1
9,1,0.472,1,1,7,1,0,1,1
9,1,0.604,1,0,8,0,1,1,1
9,1,0.719,1,0,9,0,1,0,1
9,1,0.477,1,1,10,1,0,0,1
9,2,0.789,1,0,3,0,1,1,0
9,2,0.593,1,1,4,1,0,1,0
9,2,0.541,1,1,5,1,0,1,1
9,2,0.628,1,0,6,0,1,1,1
9,2,0.684,0,0,7,1,0,1,1
9,2,0.609,1,0,8,0,1,1,1
9,2,0.685,1,0,9,0,1,0,1
9,2,0.736,1,1,10,1,0,0,1
10,1,0.817,1,1,2,1,0,1,0
10,1,0.887,1,0,5,0,1,1,1
10,1,0.709,1,0,6,0,1,1,1
10,1,0.718,1,0,7,0,1,1,1
10,1,0.794,1,0,8,0,1,1,1
10,1,0.973,1,1,9,1,0,0,1
10,1,0.883,1,1,10,1,0,0,1
10,2,1.125,1,1,5,1,0,1,1
10,2,0.825,1,0,6,0,1,1,1
10,2,0.896,1,0,7,0,1,1,1
10,2,0.866,1,0,8,0,1,1,1
10,2,0.814,1,1,9,1,0,0,1
10,2,1.014,0,0,10,1,0,0,1
10,3,0.402,0,0,4,1,0,1,0
10,3,0.737,1,0,5,0,1,1,1
10,3,0.82,1,0,6,0,1,1,1
10,3,0.624,1,1,7,1,0,1,1
10,3,1.23,0,1,9,0,1,0,1
10,3,1.169,0,0,10,1,0,0,1
10,2,0.799,1,1,3,1,0,1,0
10,2,1.12,1,0,4,0,1,1,0
10,2,0.73,1,1,5,1,0,1,1
10,2,0.807,1,0,6,0,1,1,1
10,2,1.132,1,1,7,1,0,1,1
10,2,1.011,1,0,8,0,1,1,1
10,2,1.333,0,0,9,1,0,0,1
10,2,0.613,1,0,10,0,1,0,1
10,1,1.06,1,0,2,0,1,1,0
10,1,1.015,1,1,3,1,0,1,0
10,1,0.852,1,0,4,0,1,1,0
10,1,0.767,1,1,5,1,0,1,1
10,1,0.939,1,0,6,0,1,1,1
10,1,0.584,1,1,7,1,0,1,1
10,1,0.84,1,0,8,0,1,1,1
10,1,0.56,1,1,9,1,0,0,1
10,1,0.692,1,0,10,0,1,0,1
10,3,0.668,1,1,5,1,0,1,1
10,3,1.259,0,0,6,1,0,1,1
10,3,0.86,1,0,7,0,1,1,1
10,3,0.767,1,1,8,1,0,1,1
10,3,0.825,0,0,9,1,0,0,1
10,3,0.808,1,0,10,0,1,0,1
10,1,0.589,1,1,2,1,0,1,0
10,1,0.979,1,0,3,0,1,1,0
10,1,0.611,1,1,4,1,0,1,0
10,1,0.641,1,0,5,0,1,1,1
10,1,0.593,1,1,6,1,0,1,1
10,1,0.781,1,0,7,0,1,1,1
10,1,0.611,1,0,8,0,1,1,1
10,1,0.859,1,0,9,0,1,0,1
10,1,0.741,1,1,10,1,0,0,1
10,3,1.286,1,1,4,1,0,1,0
10,3,0.764,0,0,5,1,0,1,1
10,3,0.609,1,0,6,0,1,1,1
10,3,0.757,0,0,7,1,0,1,1
10,3,1.315,1,0,8,0,1,1,1
10,3,1.15,1,0,9,0,1,0,1
10,3,0.814,1,1,10,1,0,0,1
10,2,0.695,1,0,4,0,1,1,0
10,2,1.041,1,0,5,0,1,1,1
10,2,0.849,1,1,6,1,0,1,1
10,2,0.483,0,0,7,1,0,1,1
10,2,0.678,0,1,8,0,1,1,1
10,2,1.096,1,0,9,0,1,0,1
10,2,0.812,1,1,10,1,0,0,1
10,2,0.739,1,1,3,1,0,1,0
10,2,0.998,1,1,4,1,0,1,0
10,2,0.732,1,0,5,0,1,1,1
10,2,0.805,1,0,6,0,1,1,1
10,2,0.615,1,1,7,1,0,1,1
10,2,0.842,1,0,8,0,1,1,1
10,2,1.013,1,0,10,0,1,0,1
10,3,0.967,1,1,4,1,0,1,0
10,3,0.945,1,1,5,1,0,1,1
10,3,0.924,1,0,6,0,1,1,1
10,3,1.265,0,1,7,0,1,1,1
10,3,0.719,1,0,8,0,1,1,1
10,3,1.081,1,1,9,1,0,0,1
10,3,1.335,0,0,10,1,0,0,1
10,2,0.523,1,1,3,1,0,1,0
10,2,0.66,1,0,4,0,1,1,0
10,2,0.934,1,0,5,0,1,1,1
10,2,1.134,1,1,6,1,0,1,1
10,2,1.187,1,0,7,0,1,1,1
10,2,1.325,1,0,8,0,1,1,1
10,2,0.987,1,1,9,1,0,0,1
10,2,0.94,1,1,10,1,0,0,1
10,1,0.799,1,0,2,0,1,1,0
10,1,0.593,1,1,3,1,0,1,0
10,1,0.993,1,0,4,0,1,1,0
10,1,1.056,1,0,5,0,1,1,1
10,1,0.768,1,1,6,1,0,1,1
10,1,1.033,1,1,7,1,0,1,1
10,1,0.786,1,0,8,0,1,1,1
10,1,0.982,1,0,9,0,1,0,1
10,1,0.603,1,1,10,1,0,0,1
10,3,0.638,1,0,5,0,1,1,1
10,3,0.877,1,1,6,1,0,1,1
10,3,0.672,1,0,7,0,1,1,1
10,3,0.716,0,0,9,1,0,0,1
10,3,0.604,0,0,10,1,0,0,1
10,1,0.508,1,1,2,1,0,1,0
10,1,1.02,0,0,3,1,0,1,0
10,1,0.757,1,0,4,0,1,1,0
10,1,0.733,1,1,5,1,0,1,1
10,1,1.174,1,0,6,0,1,1,1
10,1,0.769,1,0,7,0,1,1,1
10,1,1.186,1,0,8,0,1,1,1
10,1,0.668,1,1,9,1,0,0,1
10,1,1.162,1,0,10,0,1,0,1
10,3,1.192,1,0,4,0,1,1,0
10,3,1.134,0,1,5,0,1,1,1
10,3,0.992,1,1,6,1,0,1,1
10,3,1.377,1,0,7,0,1,1,1
10,3,0.683,0,0,9,1,0,0,1
10,3,1.286,1,1,10,1,0,0,1
10,2,0.765,1,0,3,0,1,1,0
10,2,0.838,1,1,4,1,0,1,0
10,2,1.23,1,1,5,1,0,1,1
10,2,0.844,1,0,6,0,1,1,1
10,2,1.138,1,1,7,1,0,1,1
10,2,1.228,1,0,8,0,1,1,1
10,2,1.028,0,1,9,0,1,0,1
10,2,0.994,1,1,10,1,0,0,1
10,1,1.047,1,1,2,1,0,1,0
10,1,0.749,1,0,3,0,1,1,0
10,1,0.737,1,1,4,1,0,1,0
10,1,0.883,1,0,5,0,1,1,1
10,1,0.873,1,0,6,0,1,1,1
10,1,1.172,1,0,7,0,1,1,1
10,1,0.636,1,1,8,1,0,1,1
10,1,1.086,1,0,9,0,1,0,1
10,1,0.499,1,1,10,1,0,0,1
10,3,0.921,1,0,4,0,1,1,0
10,3,0.915,1,1,6,1,0,1,1
10,3,0.932,1,1,7,1,0,1,1
10,3,1.323,0,0,8,1,0,1,1
10,3,1.187,0,0,9,1,0,0,1
10,3,1.172,0,1,10,0,0,0,1
10,2,0.788,1,1,3,1,0,1,0
10,2,0.751,1,0,4,0,1,1,0
10,2,1.262,1,1,5,1,0,1,1
10,2,0.78,1,0,6,0,1,1,1
10,2,0.851,1,1,7,1,0,1,1
10,2,1.278,1,0,8,0,1,1,1
10,2,0.995,0,1,9,0,1,0,1
10,2,1.012,1,1,10,1,0,0,1
10,1,0.58,1,1,2,1,0,1,0
10,1,0.848,1,0,3,0,1,1,0
10,1,0.981,1,1,4,1,0,1,0
10,1,0.814,1,0,5,0,1,1,1
10,1,0.756,1,0,6,0,1,1,1
10,1,0.882,1,1,7,1,0,1,1
10,1,1.113,1,0,8,0,1,1,1
10,1,1.36,1,0,9,0,1,0,1
10,1,0.579,1,1,10,1,0,0,1
10,3,1.188,1,0,4,0,1,1,0
10,3,0.63,1,1,5,1,0,1,1
10,3,1.378,0,0,6,1,0,1,1
10,3,1.07,1,1,7,1,0,1,1
10,3,0.959,1,0,8,0,1,1,1
10,3,1.337,1,0,9,0,1,0,1
10,3,1.324,1,1,10,1,0,0,1
10,1,0.727,1,1,3,1,0,1,0
10,1,0.961,1,0,4,0,1,1,0
10,1,0.823,1,1,5,1,0,1,1
10,1,0.848,1,0,6,0,1,1,1
10,1,0.67,1,1,7,1,0,1,1
10,1,0.83,1,0,8,0,1,1,1
10,1,0.812,1,0,9,0,1,0,1
10,1,0.7,1,1,10,1,0,0,1
10,3,0.912,1,1,4,1,0,1,0
10,3,1.166,1,1,5,1,0,1,1
10,3,0.653,1,0,6,0,1,1,1
10,3,1.107,1,1,7,1,0,1,1
10,3,1.276,1,1,8,1,0,1,1
10,3,1.293,0,1,9,0,0,0,1
10,3,0.815,1,0,10,0,1,0,1
10,2,0.939,1,1,3,1,0,1,0
10,2,1.19,0,0,4,1,0,1,0
10,2,0.805,1,0,5,0,1,1,1
10,2,1.218,1,0,6,0,1,1,1
10,2,0.934,1,1,7,1,0,1,1
10,2,0.794,1,0,8,0,1,1,1
10,2,1.065,1,1,9,1,0,0,1
10,2,0.695,1,0,10,0,1,0,1
10,1,0.685,1,0,2,0,1,1,0
10,1,0.741,1,1,3,1,0,1,0
10,1,0.664,1,1,4,1,0,1,0
10,1,0.758,1,0,5,0,1,1,1
10,1,1.179,1,0,6,0,1,1,1
10,1,0.584,1,1,7,1,0,1,1
10,1,1.126,1,0,8,0,1,1,1
10,1,1.242,1,1,9,1,0,0,1
10,1,0.693,1,0,10,0,1,0,1
10,2,0.774,1,0,3,0,1,1,0
10,2,1.405,1,0,4,0,1,1,0
10,2,1.14,0,0,5,1,0,1,1
10,2,0.772,1,1,6,1,0,1,1
10,2,1.127,1,1,7,1,0,1,1
10,2,1,1,0,8,0,1,1,1
10,2,1.164,0,1,9,0,1,0,1
10,2,1.292,1,1,10,1,0,0,1
11,1,0.798,0,0,2,1,0,1,0
11,1,1.314,1,0,3,0,1,1,0
11,1,0.95,1,1,4,1,0,1,0
11,1,0.976,1,0,5,0,1,1,1
11,1,1.276,1,0,6,0,1,1,1
11,1,0.894,1,1,7,1,0,1,1
11,1,1.005,1,0,8,0,1,1,1
11,1,1.141,1,0,9,0,1,0,1
11,2,0.61,1,1,3,1,0,1,0
11,2,1.002,1,0,4,0,1,1,0
11,2,1.035,1,1,5,1,0,1,1
11,2,1.132,1,0,6,0,1,1,1
11,2,1.243,1,1,7,1,0,1,1
11,2,1.201,1,0,8,0,1,1,1
11,2,1.03,1,1,9,1,0,0,1
11,2,0.826,1,0,10,0,1,0,1
11,3,1.123,1,0,4,0,1,1,0
11,3,0.749,1,1,5,1,0,1,1
11,3,1.143,1,1,6,1,0,1,1
11,3,1.277,1,1,7,1,0,1,1
11,3,0.847,1,0,8,0,1,1,1
11,3,1.062,1,1,10,1,0,0,1
11,2,0.611,1,1,3,1,0,1,0
11,2,0.973,1,0,4,0,1,1,0
11,2,0.91,1,1,5,1,0,1,1
11,2,1.054,1,0,6,0,1,1,1
11,2,1.277,1,0,7,0,1,1,1
11,2,1.278,0,1,8,0,1,1,1
11,2,1.142,1,1,9,1,0,0,1
11,1,1.043,1,1,2,1,0,1,0
11,1,1.144,1,0,3,0,1,1,0
11,1,0.74,1,1,4,1,0,1,0
11,1,0.747,1,0,5,0,1,1,1
11,1,0.873,1,0,6,0,1,1,1
11,1,0.848,1,0,7,0,1,1,1
11,1,0.724,1,1,8,1,0,1,1
11,1,0.961,1,0,9,0,1,0,1
11,1,0.77,1,1,10,1,0,0,1
11,3,0.75,1,0,4,0,1,1,0
11,3,1.162,0,1,5,0,1,1,1
11,3,1.122,1,1,6,1,0,1,1
11,3,1.013,1,0,7,0,1,1,1
11,3,1.28,1,1,8,1,0,1,1
11,3,0.868,1,1,10,1,0,0,1
11,1,0.456,1,1,2,1,0,1,0
11,1,0.677,1,1,3,1,0,1,0
11,1,0.764,1,0,4,0,1,1,0
11,1,0.883,1,0,5,0,1,1,1
11,1,0.922,1,0,6,0,1,1,1
11,1,0.938,1,0,7,0,1,1,1
11,1,1.069,1,0,8,0,1,1,1
11,1,0.716,1,1,9,1,0,0,1
11,1,0.699,1,1,10,1,0,0,1
11,3,1.03,1,1,4,1,0,1,0
11,3,1.102,1,1,5,1,0,1,1
11,3,0.804,1,0,6,0,1,1,1
11,3,1.365,0,1,7,0,1,1,1
11,3,1.191,1,0,8,0,1,1,1
11,3,1.198,1,1,9,1,0,0,1
11,3,1.281,0,0,10,1,0,0,1
11,2,0.643,1,1,3,1,0,1,0
11,2,0.771,1,0,4,0,1,1,0
11,2,0.748,1,1,5,1,0,1,1
11,2,0.881,1,0,6,0,1,1,1
11,2,1.464,1,1,7,1,0,1,1
11,2,0.979,1,1,10,1,0,0,1
11,2,0.613,1,1,3,1,0,1,0
11,2,0.968,0,0,4,1,0,1,0
11,2,0.719,0,1,5,0,1,1,1
11,2,1.08,1,0,6,0,1,1,1
11,2,0.726,1,1,7,1,0,1,1
11,2,1.118,1,0,8,0,1,1,1
11,2,0.769,1,1,9,1,0,0,1
11,2,1.033,1,0,10,0,1,0,1
11,3,0.547,1,1,4,1,0,1,0
11,3,0.65,1,1,5,1,0,1,1
11,3,0.799,1,0,6,0,1,1,1
11,3,0.943,1,1,7,1,0,1,1
11,3,1.213,1,1,8,1,0,1,1
11,3,1.395,1,0,10,0,1,0,1
11,2,0.902,1,0,3,0,1,1,0
11,2,0.773,1,0,4,0,1,1,0
11,2,1.007,1,1,5,1,0,1,1
11,2,1.222,1,1,6,1,0,1,1
11,2,1.094,1,0,8,0,1,1,1
11,2,1.38,0,1,9,0,1,0,1
11,1,0.491,1,1,2,1,0,1,0
11,1,0.809,1,0,3,0,1,1,0
11,1,0.63,1,1,4,1,0,1,0
11,1,0.86,1,0,5,0,1,1,1
11,1,0.757,0,0,6,1,0,1,1
11,1,1.158,1,0,7,0,1,1,1
11,1,0.864,0,1,8,0,1,1,1
11,1,1.07,1,0,9,0,1,0,1
11,1,0.76,0,0,10,1,0,0,1
11,3,1.048,1,1,4,1,0,1,0
11,3,0.794,1,0,5,0,1,1,1
11,3,0.913,1,1,6,1,0,1,1
11,3,0.75,1,0,7,0,1,1,1
11,3,1.109,1,0,8,0,1,1,1
11,3,1.023,1,1,9,1,0,0,1
11,3,0.883,0,0,10,1,0,0,1
11,1,0.806,1,1,2,1,0,1,0
11,1,0.9,1,1,3,1,0,1,0
11,1,0.743,1,0,4,0,1,1,0
11,1,0.64,1,1,5,1,0,1,1
11,1,0.855,1,0,6,0,1,1,1
11,1,1.017,1,0,7,0,1,1,1
11,1,1.217,1,0,8,0,1,1,1
11,1,0.787,1,1,9,1,0,0,1
11,1,0.801,1,0,10,0,1,0,1
11,3,0.524,1,1,4,1,0,1,0
11,3,0.625,0,0,5,1,0,1,1
11,3,0.934,0,1,6,0,1,1,1
11,3,1.324,1,1,7,1,0,1,1
11,3,0.948,1,0,8,0,1,1,1
11,3,1.065,1,0,9,0,1,0,1
11,3,0.685,1,1,10,1,0,0,1
11,2,1,1,1,3,1,0,1,0
11,2,0.926,1,1,4,1,0,1,0
11,2,0.595,1,0,5,0,1,1,1
11,2,0.971,1,0,6,0,1,1,1
11,2,0.701,1,1,7,1,0,1,1
11,2,0.933,1,0,8,0,1,1,1
11,2,0.978,0,0,9,1,0,0,1
11,1,1.027,1,0,2,0,1,1,0
11,1,1.085,1,1,3,1,0,1,0
11,1,0.574,1,0,4,0,1,1,0
11,1,0.917,1,0,5,0,1,1,1
11,1,0.936,1,1,6,1,0,1,1
11,1,0.992,1,1,7,1,0,1,1
11,1,0.581,1,0,8,0,1,1,1
11,1,1.007,1,0,9,0,1,0,1
11,1,0.813,1,1,10,1,0,0,1
11,3,0.702,1,1,4,1,0,1,0
11,3,0.718,1,0,5,0,1,1,1
11,3,1.039,1,0,6,0,1,1,1
11,3,1.015,1,1,7,1,0,1,1
11,3,1.01,1,1,8,1,0,1,1
11,3,0.818,1,0,9,0,1,0,1
11,3,1.156,0,0,10,1,0,0,1
11,2,0.883,1,0,3,0,1,1,0
11,2,0.527,1,1,4,1,0,1,0
11,2,1.064,1,1,5,1,0,1,1
11,2,0.64,1,0,6,0,1,1,1
11,2,0.582,1,1,7,1,0,1,1
11,2,0.734,1,0,8,0,1,1,1
11,2,1.2,1,0,9,0,1,0,1
11,2,0.747,1,1,10,1,0,0,1
11,1,0.984,1,0,2,0,1,1,0
11,1,0.977,1,1,3,1,0,1,0
11,1,0.922,1,1,4,1,0,1,0
11,1,0.699,1,0,5,0,1,1,1
11,1,0.999,1,0,6,0,1,1,1
11,1,1.102,1,1,7,1,0,1,1
11,1,1.064,1,0,8,0,1,1,1
11,1,0.603,1,1,9,1,0,0,1
11,1,1.015,1,0,10,0,1,0,1
11,3,1.18,1,0,4,0,1,1,0
11,3,0.961,1,0,5,0,1,1,1
11,3,0.72,1,1,6,1,0,1,1
11,3,1.081,1,1,7,1,0,1,1
11,3,0.923,0,0,8,1,0,1,1
11,3,1.014,1,1,9,1,0,0,1
11,3,1.274,0,1,10,0,0,0,1
11,1,0.907,1,0,2,0,1,1,0
11,1,0.819,1,1,3,1,0,1,0
11,1,0.959,1,0,4,0,1,1,0
11,1,0.827,0,0,5,1,0,1,1
11,1,1.113,1,0,6,0,1,1,1
11,1,1.035,1,1,7,1,0,1,1
11,1,1.421,1,0,8,0,1,1,1
11,1,1.316,1,0,9,0,1,0,1
11,1,0.626,1,1,10,1,0,0,1
11,3,1.178,0,1,4,0,1,1,0
11,3,1.376,0,0,5,1,0,1,1
11,3,1.49,1,0,7,0,1,1,1
11,3,1.149,1,1,8,1,0,1,1
11,3,1.32,0,0,9,1,0,0,1
11,2,0.556,1,1,3,1,0,1,0
11,2,0.878,1,0,4,0,1,1,0
11,2,1.24,1,0,5,0,1,1,1
11,2,1.037,1,1,6,1,0,1,1
11,2,1.213,0,1,7,0,1,1,1
11,2,1.373,1,0,8,0,1,1,1
11,1,1.344,0,1,2,0,1,1,0
11,1,0.849,1,1,3,1,0,1,0
11,1,0.888,1,0,4,0,1,1,0
11,1,1.273,1,1,5,1,0,1,1
11,1,0.871,1,0,6,0,1,1,1
11,1,0.712,1,1,7,1,0,1,1
11,1,1.025,1,0,8,0,1,1,1
11,1,0.998,1,1,9,1,0,0,1
11,2,1.133,1,0,4,0,1,1,0
11,2,1.189,1,0,5,0,1,1,1
11,2,0.56,1,1,6,1,0,1,1
11,2,1.052,1,1,7,1,0,1,1
11,2,0.926,1,0,9,0,1,0,1
11,2,0.739,1,1,10,1,0,0,1
12,1,1.104,1,0,4,0,1,1,0
12,1,1.116,1,0,5,0,1,1,1
12,1,0.855,0,0,9,1,0,0,1
12,1,1.015,1,1,10,1,0,0,1
12,2,1.031,1,1,5,1,0,1,1
12,2,1.226,1,0,6,0,1,1,1
12,2,0.865,1,1,7,1,0,1,1
12,2,1.105,1,0,8,0,1,1,1
12,2,0.948,1,1,9,1,0,0,1
12,2,1.099,1,0,10,0,1,0,1
12,3,1.379,0,1,4,0,1,1,0
12,3,1.344,0,0,6,1,0,1,1
12,3,1.017,1,1,7,1,0,1,1
12,3,1.118,0,1,8,0,1,1,1
12,3,0.935,1,1,10,1,0,0,1
12,2,1.065,0,0,3,1,0,1,0
12,2,0.065,1,0,6,0,1,1,1
12,2,1.29,1,1,7,1,0,1,1
12,2,1.251,1,0,8,0,1,1,1
12,2,0.892,1,1,9,1,0,0,1
12,2,1.006,1,0,10,0,1,0,1
12,1,1.238,1,0,2,0,1,1,0
12,1,0.951,1,1,3,1,0,1,0
12,1,0.752,1,0,4,0,1,1,0
12,1,0.966,0,1,5,0,1,1,1
12,1,0.645,0,0,6,1,0,1,1
12,1,1.314,1,1,7,1,0,1,1
12,1,1.021,1,0,8,0,1,1,1
12,1,1.195,1,0,9,0,1,0,1
12,1,1.005,1,1,10,1,0,0,1
12,3,0.794,1,1,4,1,0,1,0
12,3,0.822,1,0,5,0,1,1,1
12,3,1.497,1,0,6,0,1,1,1
12,3,1.174,1,0,9,0,1,0,1
12,3,1.197,1,1,10,1,0,0,1
12,1,1.203,1,1,3,1,0,1,0
12,1,1.009,1,0,4,0,1,1,0
12,1,1.087,1,1,5,1,0,1,1
12,1,0.709,1,0,6,0,1,1,1
12,1,0.998,1,1,7,1,0,1,1
12,1,1.208,1,1,9,1,0,0,1
12,1,0.996,1,0,10,0,1,0,1
12,3,1.349,0,0,4,1,0,1,0
12,3,0.694,1,1,5,1,0,1,1
12,3,1.313,1,0,6,0,1,1,1
12,3,0.932,1,1,7,1,0,1,1
12,3,1.336,1,0,8,0,1,1,1
12,3,0.809,1,1,10,1,0,0,1
12,2,1.163,1,0,3,0,1,1,0
12,2,1.327,0,1,4,0,1,1,0
12,2,1.045,1,1,5,1,0,1,1
12,2,0.969,1,1,6,1,0,1,1
12,2,0.911,1,1,7,1,0,1,1
12,2,0.909,1,0,8,0,1,1,1
12,2,1.209,0,1,9,0,1,0,1
12,2,0.963,1,1,10,1,0,0,1
12,2,1.105,1,1,3,1,0,1,0
12,2,0.919,1,0,4,0,1,1,0
12,2,0.782,1,1,5,1,0,1,1
12,2,1.034,1,0,6,0,1,1,1
12,2,0.725,1,1,7,1,0,1,1
12,2,1.183,1,0,8,0,1,1,1
12,2,1.083,1,0,9,0,1,0,1
12,2,0.895,1,1,10,1,0,0,1
12,3,0.556,1,1,4,1,0,1,0
12,3,1.121,1,1,5,1,0,1,1
12,3,1.181,1,0,6,0,1,1,1
12,3,0.884,0,1,7,0,1,1,1
12,3,0.913,1,0,8,0,1,1,1
12,3,0.973,1,1,9,1,0,0,1
12,3,1.125,1,1,10,1,0,0,1
12,2,0.684,1,0,3,0,1,1,0
12,2,0.888,1,1,4,1,0,1,0
12,2,0.873,1,1,5,1,0,1,1
12,2,0.833,1,0,6,0,1,1,1
12,2,0.901,1,1,7,1,0,1,1
12,2,1.064,0,1,8,0,1,1,1
12,2,1.36,1,0,9,0,1,0,1
12,2,0.881,1,1,10,1,0,0,1
12,1,0.49,1,0,2,0,1,1,0
12,1,0.008,0,0,3,1,0,1,0
12,1,1.149,1,0,4,0,1,1,0
12,1,1.023,1,1,5,1,0,1,1
12,1,1.1,1,0,6,0,1,1,1
12,1,0.769,1,1,7,1,0,1,1
12,1,0.853,1,0,8,0,1,1,1
12,1,0.86,0,1,9,0,1,0,1
12,1,0.764,1,1,10,1,0,0,1
12,3,1.104,0,0,6,1,0,1,1
12,3,0.588,1,1,8,1,0,1,1
12,3,1.05,1,1,10,1,0,0,1
12,1,0.859,0,0,2,1,0,1,0
12,1,0.681,1,1,3,1,0,1,0
12,1,1.226,1,0,4,0,1,1,0
12,1,0.88,1,1,5,1,0,1,1
12,1,0.693,1,0,6,0,1,1,1
12,1,0.66,0,1,8,0,1,1,1
12,1,0.896,1,1,9,1,0,0,1
12,3,1.266,1,0,4,0,1,1,0
12,3,0.693,1,1,5,1,0,1,1
12,3,0.786,1,1,6,1,0,1,1
12,3,1.161,1,0,7,0,1,1,1
12,3,0.807,1,1,8,1,0,1,1
12,3,1.323,1,1,9,1,0,0,1
12,3,1,1,0,10,0,1,0,1
12,2,0.625,1,1,3,1,0,1,0
12,2,0.855,1,0,4,0,1,1,0
12,2,0.834,1,0,5,0,1,1,1
12,2,0.507,1,1,6,1,0,1,1
12,2,1.407,1,0,7,0,1,1,1
12,2,0.825,1,1,9,1,0,0,1
12,2,1.074,1,1,10,1,0,0,1
12,1,1.183,1,1,2,1,0,1,0
12,1,0.802,1,0,3,0,1,1,0
12,1,0.523,1,1,4,1,0,1,0
12,1,0.927,1,0,5,0,1,1,1
12,1,1.274,1,0,6,0,1,1,1
12,1,1.142,1,0,7,0,1,1,1
12,1,1.031,1,1,8,1,0,1,1
12,1,1.182,1,0,9,0,1,0,1
12,1,0.904,1,1,10,1,0,0,1
12,3,0.895,1,0,4,0,1,1,0
12,3,1.128,1,0,5,0,1,1,1
12,3,1.204,1,1,6,1,0,1,1
12,3,1.176,1,1,7,1,0,1,1
12,3,1.022,1,1,8,1,0,1,1
12,3,1.275,1,1,9,1,0,0,1
12,3,0.981,1,0,10,0,0,0,1
12,2,0.621,1,1,3,1,0,1,0
12,2,0.827,1,0,4,0,1,1,0
12,2,0.591,1,1,5,1,0,1,1
12,2,0.972,1,0,6,0,1,1,1
12,2,1.324,1,0,7,0,1,1,1
12,2,1.124,0,0,9,1,0,0,1
12,2,1.072,1,1,10,1,0,0,1
12,1,0.144,0,0,2,1,0,1,0
12,1,0.99,1,1,4,1,0,1,0
12,1,0.778,1,0,5,0,1,1,1
12,1,1.041,1,0,6,0,1,1,1
12,1,1.009,1,1,7,1,0,1,1
12,1,0.902,1,0,8,0,1,1,1
12,1,1.257,0,1,9,0,1,0,1
12,1,1.074,1,1,10,1,0,0,1
12,3,0.941,1,1,4,1,0,1,0
12,3,1.384,1,1,5,1,0,1,1
12,3,1.159,1,0,6,0,1,1,1
12,3,0.87,1,1,7,1,0,1,1
12,3,1.008,1,1,8,1,0,1,1
12,3,0.85,0,1,9,0,0,0,1
12,3,1.236,1,0,10,0,1,0,1
12,1,1.101,1,1,2,1,0,1,0
12,1,1.153,1,0,3,0,1,1,0
12,1,0.691,1,1,4,1,0,1,0
12,1,1.347,1,0,5,0,1,1,1
12,1,0.579,1,1,6,1,0,1,1
12,1,0.859,1,0,7,0,1,1,1
12,1,0.702,0,1,8,0,1,1,1
12,1,1.03,1,1,10,1,0,0,1
12,3,0.965,1,1,4,1,0,1,0
12,3,1.221,1,0,5,0,1,1,1
12,3,0.899,1,1,6,1,0,1,1
12,3,1.38,0,1,8,0,1,1,1
12,3,1.169,1,1,9,1,0,0,1
12,3,1.423,1,1,10,1,0,0,1
12,2,1.305,0,0,3,1,0,1,0
12,2,1.234,1,1,7,1,0,1,1
12,2,0.881,1,1,9,1,0,0,1
12,2,1.376,1,0,10,0,1,0,1
12,1,1.114,1,0,2,0,1,1,0
12,1,1.19,1,1,3,1,0,1,0
12,1,1.011,1,1,4,1,0,1,0
12,1,1.063,1,0,5,0,1,1,1
12,1,1.235,1,0,6,0,1,1,1
12,1,0.955,1,1,7,1,0,1,1
12,1,1.099,1,0,8,0,1,1,1
12,1,0.704,1,1,9,1,0,0,1
12,1,1.032,1,0,10,0,1,0,1
12,2,0.92,0,0,3,1,0,1,0
12,2,1.051,1,0,4,0,1,1,0
12,2,1.453,1,0,5,0,1,1,1
12,2,0.748,1,1,6,1,0,1,1
12,2,1.096,1,1,7,1,0,1,1
12,2,1.114,1,0,8,0,1,1,1
12,2,1.325,0,1,9,0,1,0,1
13,1,1.351,1,0,2,0,1,1,0
13,1,1.129,0,0,3,1,0,1,0
13,1,0.814,1,0,4,0,1,1,0
13,1,0.629,1,0,5,0,1,1,1
13,1,0.792,1,1,6,1,0,1,1
13,1,1.144,1,1,7,1,0,1,1
13,1,0.885,1,0,8,0,1,1,1
13,1,0.689,1,0,9,0,1,0,1
13,1,1.051,1,1,10,1,0,0,1
13,2,0.654,0,0,3,1,0,1,0
13,2,0.852,1,0,4,0,1,1,0
13,2,1.114,1,0,5,0,1,1,1
13,2,1.134,1,1,6,1,0,1,1
13,2,1.055,0,0,7,1,0,1,1
13,2,0.716,1,0,8,0,1,1,1
13,2,0.956,1,0,9,0,1,0,1
13,2,0.79,1,1,10,1,0,0,1
13,3,0.4,0,0,4,1,0,1,0
13,3,1.376,1,1,5,1,0,1,1
13,3,0.663,1,0,6,0,1,1,1
13,3,0.518,0,0,8,1,0,1,1
13,3,0.744,0,1,9,0,0,0,1
13,3,0.625,1,0,10,0,1,0,1
13,2,0.327,0,0,3,1,0,1,0
13,2,0.377,1,1,5,1,0,1,1
13,2,0.619,0,1,6,0,1,1,1
13,2,0.108,0,0,7,1,0,1,1
13,2,0.612,1,0,9,0,1,0,1
13,2,1.477,1,1,10,1,0,0,1
13,1,0.423,0,0,2,1,0,1,0
13,1,0.406,0,0,3,1,0,1,0
13,1,0.819,1,0,4,0,1,1,0
13,1,0.769,1,1,5,1,0,1,1
13,1,0.655,1,0,6,0,1,1,1
13,1,0.673,1,0,7,0,1,1,1
13,1,0.837,1,0,8,0,1,1,1
13,1,0.825,1,1,9,1,0,0,1
13,1,0.718,1,0,10,0,1,0,1
13,3,1.099,1,0,4,0,1,1,0
13,3,1.32,0,0,5,1,0,1,1
13,3,0.735,0,0,6,1,0,1,1
13,3,0.951,1,0,7,0,1,1,1
13,3,0.612,1,1,8,1,0,1,1
13,3,0.597,0,0,9,1,0,0,1
13,3,0.344,1,0,10,0,1,0,1
13,1,0.997,1,0,2,0,1,1,0
13,1,0.854,1,1,3,1,0,1,0
13,1,0.674,1,0,4,0,1,1,0
13,1,0.901,1,1,5,1,0,1,1
13,1,0.628,1,0,6,0,1,1,1
13,1,0.874,1,1,7,1,0,1,1
13,1,0.539,1,0,8,0,1,1,1
13,1,0.611,1,0,9,0,1,0,1
13,1,0.981,1,1,10,1,0,0,1
13,3,1.076,1,1,4,1,0,1,0
13,3,0.553,0,0,5,1,0,1,1
13,3,0.616,1,0,6,0,1,1,1
13,3,0.352,1,0,7,0,1,1,1
13,3,1.088,1,0,8,0,1,1,1
13,3,1.157,1,1,10,1,0,0,1
13,2,0.841,1,0,3,0,1,1,0
13,2,0.869,1,1,4,1,0,1,0
13,2,0.564,0,0,5,1,0,1,1
13,2,0.464,1,0,6,0,1,1,1
13,2,0.476,1,1,7,1,0,1,1
13,2,0.173,1,0,8,0,1,1,1
13,2,0.416,1,0,9,0,1,0,1
13,2,0.581,1,1,10,1,0,0,1
13,2,1.165,0,1,3,0,1,1,0
13,2,0.502,1,0,4,0,1,1,0
13,2,0.203,0,0,5,1,0,1,1
13,2,0.789,0,0,6,1,0,1,1
13,2,1.306,1,1,7,1,0,1,1
13,2,0.705,1,0,8,0,1,1,1
13,2,0.556,1,0,9,0,1,0,1
13,2,0.682,1,1,10,1,0,0,1
13,3,0.973,1,1,4,1,0,1,0
13,3,1.346,1,0,5,0,1,1,1
13,3,0.727,1,0,6,0,1,1,1
13,3,0.752,1,1,7,1,0,1,1
13,3,0.306,0,0,8,1,0,1,1
13,3,0.302,1,0,9,0,1,0,1
13,3,0.954,1,1,10,1,0,0,1
13,2,0.852,1,1,3,1,0,1,0
13,2,0.123,1,0,4,0,1,1,0
13,2,0.176,0,0,5,1,0,1,1
13,2,0.675,1,0,6,0,1,1,1
13,2,0.512,1,0,7,0,1,1,1
13,2,0.985,1,0,8,0,1,1,1
13,2,1.071,1,1,9,1,0,0,1
13,2,0.514,0,0,10,1,0,0,1
13,1,0.846,1,0,2,0,1,1,0
13,1,1.024,1,1,3,1,0,1,0
13,1,0.739,1,0,4,0,1,1,0
13,1,0.905,1,1,5,1,0,1,1
13,1,1.215,1,0,6,0,1,1,1
13,1,0.913,1,1,7,1,0,1,1
13,1,0.718,1,0,8,0,1,1,1
13,1,0.601,1,1,9,1,0,0,1
13,1,0.784,1,0,10,0,1,0,1
13,3,0.492,0,0,4,1,0,1,0
13,3,0.642,0,0,5,1,0,1,1
13,3,0.496,1,0,6,0,1,1,1
13,3,0.544,1,1,7,1,0,1,1
13,3,0.285,1,0,8,0,1,1,1
13,3,0.322,1,0,9,0,1,0,1
13,3,1.244,0,0,10,1,0,0,1
13,1,1.043,1,1,2,1,0,1,0
13,1,1.003,1,1,3,1,0,1,0
13,1,0.587,1,0,4,0,1,1,0
13,1,1.041,1,0,5,0,1,1,1
13,1,0.777,1,0,6,0,1,1,1
13,1,0.763,1,0,7,0,1,1,1
13,1,0.87,1,0,8,0,1,1,1
13,1,1.114,1,1,9,1,0,0,1
13,1,0.891,1,1,10,1,0,0,1
13,3,1.259,1,1,4,1,0,1,0
13,3,0.546,1,0,5,0,1,1,1
13,3,0.327,0,0,6,1,0,1,1
13,3,0.406,1,0,7,0,1,1,1
13,3,0.193,1,0,8,0,1,1,1
13,3,0.684,1,1,9,1,0,0,1
13,3,0.406,0,0,10,1,0,0,1
13,2,1.064,1,1,3,1,0,1,0
13,2,0.339,1,0,4,0,1,1,0
13,2,0.26,1,0,5,0,1,1,1
13,2,0.72,1,1,6,1,0,1,1
13,2,0.367,1,0,7,0,1,1,1
13,2,0.256,1,0,8,0,1,1,1
13,2,0.291,0,0,9,1,0,0,1
13,2,0.654,1,1,10,1,0,0,1
13,1,0.68,1,1,2,1,0,1,0
13,1,0.522,1,0,3,0,1,1,0
13,1,0.283,1,1,4,1,0,1,0
13,1,0.711,1,0,5,0,1,1,1
13,1,0.604,1,0,6,0,1,1,1
13,1,1,1,1,7,1,0,1,1
13,1,1.401,1,0,8,0,1,1,1
13,1,1.013,1,0,9,0,1,0,1
13,1,0.778,1,1,10,1,0,0,1
13,3,0.664,1,0,4,0,1,1,0
13,3,0.443,1,0,5,0,1,1,1
13,3,0.984,0,0,6,1,0,1,1
13,3,0.631,1,1,7,1,0,1,1
13,3,0.349,0,0,8,1,0,1,1
13,3,0.381,0,0,9,1,0,0,1
13,3,0.307,1,0,10,0,0,0,1
13,2,0.647,1,1,3,1,0,1,0
13,2,0.09,0,0,4,1,0,1,0
13,2,0.848,1,0,5,0,1,1,1
13,2,0.653,1,0,6,0,1,1,1
13,2,0.474,1,1,7,1,0,1,1
13,2,1.007,1,0,8,0,1,1,1
13,2,0.585,0,0,9,1,0,0,1
13,2,1.199,1,0,10,0,1,0,1
13,1,0.73,1,1,2,1,0,1,0
13,1,0.743,1,0,3,0,1,1,0
13,1,0.737,1,1,4,1,0,1,0
13,1,0.647,1,0,5,0,1,1,1
13,1,0.59,1,1,6,1,0,1,1
13,1,0.597,1,0,7,0,1,1,1
13,1,0.998,1,0,8,0,1,1,1
13,1,0.681,1,0,9,0,1,0,1
13,1,1.287,0,0,10,1,0,0,1
13,3,0.708,1,0,4,0,1,1,0
13,3,0.651,1,0,5,0,1,1,1
13,3,0.675,0,0,6,1,0,1,1
13,3,1.059,1,0,7,0,1,1,1
13,3,1.057,0,0,8,1,0,1,1
13,3,0.8,1,1,9,1,0,0,1
13,3,0.612,0,0,10,1,0,0,1
13,1,0.891,1,0,2,0,1,1,0
13,1,0.858,1,1,3,1,0,1,0
13,1,0.78,1,1,4,1,0,1,0
13,1,0.708,1,0,5,0,1,1,1
13,1,1.067,1,0,6,0,1,1,1
13,1,1.262,0,0,7,1,0,1,1
13,1,1.087,1,0,8,0,1,1,1
13,1,1.231,0,0,9,1,0,0,1
13,1,1.243,1,0,10,0,1,0,1
13,3,0.359,1,0,4,0,1,1,0
13,3,0.905,0,0,5,1,0,1,1
13,3,0.826,0,0,6,1,0,1,1
13,3,0.517,0,0,7,1,0,1,1
13,3,0.351,1,0,8,0,1,1,1
13,3,0.28,1,0,9,0,1,0,1
13,3,0.687,1,1,10,1,0,0,1
13,2,0.812,1,1,3,1,0,1,0
13,2,0.605,1,0,4,0,1,1,0
13,2,0.371,0,0,5,1,0,1,1
13,2,0.347,1,0,6,0,1,1,1
13,2,0.349,0,0,7,1,0,1,1
13,2,0.658,1,0,8,0,1,1,1
13,2,0.758,1,1,9,1,0,0,1
13,2,0.393,1,0,10,0,1,0,1
13,1,0.829,1,1,2,1,0,1,0
13,1,0.712,1,0,3,0,1,1,0
13,1,0.984,1,1,4,1,0,1,0
13,1,0.407,1,0,5,0,1,1,1
13,1,0.749,1,0,6,0,1,1,1
13,1,0.987,1,0,7,0,1,1,1
13,1,0.787,1,1,8,1,0,1,1
13,1,0.46,1,0,9,0,1,0,1
13,1,1.013,1,1,10,1,0,0,1
13,2,0.637,1,1,3,1,0,1,0
13,2,1.162,1,1,4,1,0,1,0
13,2,0.369,1,0,5,0,1,1,1
13,2,0.303,1,0,6,0,1,1,1
13,2,0.629,1,1,7,1,0,1,1
13,2,0.308,1,0,8,0,1,1,1
13,2,0.306,0,0,9,1,0,0,1
13,2,0.174,1,0,10,0,1,0,1
14,1,0.313,0,0,2,1,0,1,0
14,1,1.007,1,0,3,0,1,1,0
14,1,0.925,1,1,4,1,0,1,0
14,1,1.269,1,0,5,0,1,1,1
14,1,1.096,1,0,6,0,1,1,1
14,1,1.054,1,1,7,1,0,1,1
14,1,0.982,1,0,8,0,1,1,1
14,1,0.894,1,0,9,0,1,0,1
14,1,1.112,1,1,10,1,0,0,1
14,2,0.944,1,1,3,1,0,1,0
14,2,0.757,1,0,4,0,1,1,0
14,2,1.193,1,0,5,0,1,1,1
14,2,1.13,1,0,7,0,1,1,1
14,2,0.854,1,0,8,0,1,1,1
14,3,0.7,1,1,4,1,0,1,0
14,3,0.653,1,1,5,1,0,1,1
14,3,0.882,1,0,6,0,1,1,1
14,3,1.129,1,0,8,0,1,1,1
14,3,1.072,0,1,9,0,1,0,1
14,3,1.456,1,1,10,1,0,0,1
14,2,1.193,1,1,3,1,0,1,0
14,2,0.939,1,0,4,0,1,1,0
14,2,1.003,1,0,5,0,1,1,1
14,2,0.36,0,0,7,1,0,1,1
14,2,0.993,1,0,8,0,1,1,1
14,2,0.898,1,0,9,0,1,0,1
14,2,0.89,1,1,10,1,0,0,1
14,1,1.183,1,1,2,1,0,1,0
14,1,1.091,1,1,3,1,0,1,0
14,1,0.95,1,0,4,0,1,1,0
14,1,0.849,1,0,5,0,1,1,1
14,1,1.009,1,0,6,0,1,1,1
14,1,1.43,1,0,7,0,1,1,1
14,1,0.895,0,1,8,0,1,1,1
14,1,1.009,1,1,9,1,0,0,1
14,1,0.97,1,1,10,1,0,0,1
14,3,0.691,1,0,4,0,1,1,0
14,3,0.87,1,0,5,0,1,1,1
14,3,0.622,1,1,6,1,0,1,1
14,3,1.424,1,0,7,0,1,1,1
14,3,1.354,0,0,8,1,0,1,1
14,3,0.688,1,1,9,1,0,0,1
14,3,1.214,1,1,10,1,0,0,1
14,1,1.362,1,0,2,0,1,1,0
14,1,1.035,1,1,3,1,0,1,0
14,1,1.13,1,1,4,1,0,1,0
14,1,1.108,1,0,5,0,1,1,1
14,1,1.016,1,0,6,0,1,1,1
14,1,1.208,1,1,7,1,0,1,1
14,1,0.994,1,0,8,0,1,1,1
14,1,0.901,1,1,9,1,0,0,1
14,1,0.871,1,0,10,0,1,0,1
14,3,0.637,1,1,4,1,0,1,0
14,3,0.637,1,1,5,1,0,1,1
14,3,0.919,1,0,6,0,1,1,1
14,3,1.143,1,0,7,0,1,1,1
14,3,1.049,1,0,8,0,1,1,1
14,3,0.843,1,1,9,1,0,0,1
14,2,0.792,1,0,3,0,1,1,0
14,2,0.855,1,0,4,0,1,1,0
14,2,0.962,1,1,5,1,0,1,1
14,2,0.636,0,0,7,1,0,1,1
14,2,0.943,1,0,8,0,1,1,1
14,2,0.996,1,0,9,0,1,0,1
14,2,0.821,1,1,10,1,0,0,1
14,2,0.58,1,1,3,1,0,1,0
14,2,0.565,1,1,4,1,0,1,0
14,2,0.744,1,0,5,0,1,1,1
14,2,0.874,1,0,6,0,1,1,1
14,2,0.643,1,1,7,1,0,1,1
14,2,0.751,1,0,8,0,1,1,1
14,2,1.091,1,1,9,1,0,0,1
14,2,0.88,1,0,10,0,1,0,1
14,3,0.516,1,1,4,1,0,1,0
14,3,0.786,1,0,5,0,1,1,1
14,3,0.924,1,0,6,0,1,1,1
14,3,0.98,1,1,7,1,0,1,1
14,3,1.007,1,1,8,1,0,1,1
14,3,1.014,1,0,9,0,1,0,1
14,2,0.747,1,1,3,1,0,1,0
14,2,0.703,1,0,4,0,1,1,0
14,2,1.009,1,1,5,1,0,1,1
14,2,0.753,1,0,6,0,1,1,1
14,2,0.995,1,1,7,1,0,1,1
14,2,0.859,1,0,8,0,1,1,1
14,2,1.071,1,0,9,0,1,0,1
14,2,0.631,1,1,10,1,0,0,1
14,1,1.402,1,1,2,1,0,1,0
14,1,0.877,1,0,3,0,1,1,0
14,1,0.576,1,1,4,1,0,1,0
14,1,0.592,1,0,5,0,1,1,1
14,1,0.557,1,1,6,1,0,1,1
14,1,0.501,1,0,7,0,1,1,1
14,1,0.795,1,0,8,0,1,1,1
14,1,0.849,1,0,9,0,1,0,1
14,1,0.706,0,0,10,1,0,0,1
14,3,0.441,1,1,4,1,0,1,0
14,3,0.531,1,0,5,0,1,1,1
14,3,0.656,1,1,6,1,0,1,1
14,3,0.769,1,0,7,0,1,1,1
14,3,0.941,1,0,8,0,1,1,1
14,3,0.86,1,1,9,1,0,0,1
14,3,1.087,0,0,10,1,0,0,1
14,1,1.165,1,0,2,0,1,1,0
14,1,1.045,1,1,3,1,0,1,0
14,1,1.042,1,0,4,0,1,1,0
14,1,0.9,1,1,5,1,0,1,1
14,1,0.785,1,0,6,0,1,1,1
14,1,0.673,1,1,7,1,0,1,1
14,1,0.912,1,0,8,0,1,1,1
14,1,1.035,1,0,9,0,1,0,1
14,1,0.861,1,1,10,1,0,0,1
14,3,0.844,1,0,4,0,1,1,0
14,3,0.603,1,1,5,1,0,1,1
14,3,0.466,1,1,6,1,0,1,1
14,3,0.945,1,1,7,1,0,1,1
14,3,0.861,1,0,8,0,1,1,1
14,3,0.699,1,0,9,0,1,0,1
14,2,0.767,1,0,3,0,1,1,0
14,2,0.513,1,1,4,1,0,1,0
14,2,1.151,1,1,5,1,0,1,1
14,2,0.862,1,0,6,0,1,1,1
14,2,1.329,1,1,7,1,0,1,1
14,2,1.296,1,0,9,0,1,0,1
14,2,0.78,1,1,10,1,0,0,1
14,1,0.793,1,1,2,1,0,1,0
14,1,1.094,1,0,3,0,1,1,0
14,1,0.649,1,1,4,1,0,1,0
14,1,1.357,0,1,5,0,1,1,1
14,1,0.871,1,0,6,0,1,1,1
14,1,0.986,1,0,7,0,1,1,1
14,1,0.706,1,1,8,1,0,1,1
14,1,0.719,1,0,9,0,1,0,1
14,1,0.603,1,1,10,1,0,0,1
14,3,0.462,1,1,4,1,0,1,0
14,3,0.661,1,1,5,1,0,1,1
14,3,0.829,1,0,6,0,1,1,1
14,3,0.808,1,1,8,1,0,1,1
14,3,0.758,0,1,9,0,0,0,1
14,3,0.674,1,0,10,0,1,0,1
14,2,0.454,1,1,3,1,0,1,0
14,2,0.443,1,1,4,1,0,1,0
14,2,0.625,1,0,5,0,1,1,1
14,2,0.778,1,0,6,0,1,1,1
14,2,0.513,1,1,7,1,0,1,1
14,2,0.722,1,0,8,0,1,1,1
14,2,0.823,1,1,9,1,0,0,1
14,2,0.572,1,0,10,0,1,0,1
14,1,0.841,1,0,2,0,1,1,0
14,1,0.742,1,1,3,1,0,1,0
14,1,0.805,1,0,4,0,1,1,0
14,1,0.503,1,1,5,1,0,1,1
14,1,0.816,1,0,6,0,1,1,1
14,1,0.513,1,1,7,1,0,1,1
14,1,0.872,1,0,8,0,1,1,1
14,1,0.463,1,1,9,1,0,0,1
14,1,0.886,1,0,10,0,1,0,1
14,3,0.812,1,0,4,0,1,1,0
14,3,0.855,1,0,5,0,1,1,1
14,3,0.583,1,1,6,1,0,1,1
14,3,1.045,0,0,7,1,0,1,1
14,3,1.358,0,0,8,1,0,1,1
14,3,0.868,1,1,9,1,0,0,1
14,3,1.031,0,1,10,0,0,0,1
14,1,0.706,1,0,2,0,1,1,0
14,1,0.565,1,1,3,1,0,1,0
14,1,0.917,1,0,4,0,1,1,0
14,1,0.74,1,0,5,0,1,1,1
14,1,0.645,1,1,6,1,0,1,1
14,1,0.776,1,1,7,1,0,1,1
14,1,0.869,1,0,8,0,1,1,1
14,1,0.776,1,0,9,0,1,0,1
14,1,0.955,1,1,10,1,0,0,1
14,3,1.09,1,1,5,1,0,1,1
14,3,0.857,1,1,6,1,0,1,1
14,3,0.768,1,1,8,1,0,1,1
14,3,0.839,0,0,9,1,0,0,1
14,3,0.888,1,0,10,0,1,0,1
14,2,0.722,1,1,3,1,0,1,0
14,2,0.721,1,0,4,0,1,1,0
14,2,0.945,1,1,5,1,0,1,1
14,2,1,1,0,6,0,1,1,1
14,2,1.454,0,0,7,1,0,1,1
14,2,1.162,1,0,8,0,1,1,1
14,2,1.125,1,1,9,1,0,0,1
14,2,1.016,1,0,10,0,1,0,1
14,1,0.898,1,1,2,1,0,1,0
14,1,0.998,1,1,3,1,0,1,0
14,1,0.564,1,0,4,0,1,1,0
14,1,0.548,1,1,5,1,0,1,1
14,1,0.908,1,0,6,0,1,1,1
14,1,0.752,1,0,7,0,1,1,1
14,1,0.85,1,0,8,0,1,1,1
14,1,0.751,1,1,9,1,0,0,1
14,1,0.815,1,0,10,0,1,0,1
14,2,0.488,1,1,3,1,0,1,0
14,2,0.86,1,0,4,0,1,1,0
14,2,0.912,1,1,5,1,0,1,1
14,2,0.778,1,0,6,0,1,1,1
14,2,0.84,1,0,7,0,1,1,1
14,2,1.012,1,0,8,0,1,1,1
14,2,0.726,1,1,10,1,0,0,1
15,1,1.109,1,0,6,0,1,1,1
15,1,0.808,0,1,8,0,1,1,1
15,1,1.256,1,1,9,1,0,0,1
15,1,1.032,1,0,10,0,1,0,1
15,2,0.646,0,1,3,0,1,1,0
15,2,0.154,1,0,4,0,1,1,0
15,2,0.985,1,1,5,1,0,1,1
15,2,1.446,1,1,6,1,0,1,1
15,2,1.316,1,0,8,0,1,1,1
15,2,1.322,1,1,10,1,0,0,1
15,3,0.48,0,1,4,0,1,1,0
15,3,1.388,0,0,5,1,0,1,1
15,3,1.238,1,0,7,0,1,1,1
15,3,0.978,1,1,8,1,0,1,1
15,3,0.97,0,0,9,1,0,0,1
15,3,0.881,1,0,10,0,1,0,1
15,2,0.941,1,1,4,1,0,1,0
15,2,1.181,1,0,5,0,1,1,1
15,2,1.236,1,0,6,0,1,1,1
15,2,0.839,1,1,7,1,0,1,1
15,2,0.786,1,0,8,0,1,1,1
15,2,0.983,1,1,9,1,0,0,1
15,2,0.717,1,0,10,0,1,0,1
15,1,1.353,1,1,2,1,0,1,0
15,1,0.776,1,0,3,0,1,1,0
15,1,0.644,1,1,4,1,0,1,0
15,1,0.868,1,0,5,0,1,1,1
15,1,0.753,1,0,6,0,1,1,1
15,1,0.902,1,0,7,0,1,1,1
15,1,0.684,1,1,8,1,0,1,1
15,1,0.794,1,0,9,0,1,0,1
15,1,0.696,1,1,10,1,0,0,1
15,3,1.017,1,1,4,1,0,1,0
15,3,0.839,0,0,5,1,0,1,1
15,3,0.801,1,0,6,0,1,1,1
15,3,1.393,1,1,7,1,0,1,1
15,3,1.254,1,1,8,1,0,1,1
15,3,0.957,0,1,10,0,1,0,1
15,1,0.758,1,0,2,0,1,1,0
15,1,0.838,0,0,3,1,0,1,0
15,1,1.042,1,1,4,1,0,1,0
15,1,0.936,1,0,5,0,1,1,1
15,1,0.835,1,0,6,0,1,1,1
15,1,0.641,1,1,7,1,0,1,1
15,1,0.772,1,0,8,0,1,1,1
15,1,0.742,1,1,9,1,0,0,1
15,1,0.7,1,0,10,0,1,0,1
15,3,0.949,1,0,4,0,1,1,0
15,3,0.98,1,1,5,1,0,1,1
15,3,0.904,0,0,6,1,0,1,1
15,3,0.919,1,1,7,1,0,1,1
15,3,1.231,1,0,8,0,1,1,1
15,3,1.296,1,0,9,0,1,0,1
15,3,1.063,1,1,10,1,0,0,1
15,2,0.576,1,1,3,1,0,1,0
15,2,0.978,1,0,4,0,1,1,0
15,2,1.029,0,0,5,1,0,1,1
15,2,0.815,1,0,6,0,1,1,1
15,2,1.122,1,0,7,0,1,1,1
15,2,1.094,0,1,8,0,1,1,1
15,2,1.248,0,0,9,1,0,0,1
15,2,1.401,1,1,10,1,0,0,1
15,2,0.6,1,1,3,1,0,1,0
15,2,0.721,1,1,4,1,0,1,0
15,2,0.7,1,0,5,0,1,1,1
15,2,0.643,1,0,6,0,1,1,1
15,2,0.519,1,1,7,1,0,1,1
15,2,0.567,1,0,8,0,1,1,1
15,2,0.942,1,1,9,1,0,0,1
15,2,1.238,1,0,10,0,1,0,1
15,3,0.857,1,0,4,0,1,1,0
15,3,0.714,0,1,5,0,1,1,1
15,3,1.056,0,0,6,1,0,1,1
15,3,1.167,1,0,7,0,1,1,1
15,3,0.784,1,1,8,1,0,1,1
15,3,0.77,0,0,9,1,0,0,1
15,3,1.427,1,1,10,1,0,0,1
15,2,0.64,1,1,3,1,0,1,0
15,2,0.826,1,0,4,0,1,1,0
15,2,0.981,0,0,5,1,0,1,1
15,2,0.812,1,0,6,0,1,1,1
15,2,0.756,1,1,7,1,0,1,1
15,2,0.83,1,0,8,0,1,1,1
15,2,0.93,1,0,9,0,1,0,1
15,2,0.585,1,1,10,1,0,0,1
15,1,0.753,1,1,2,1,0,1,0
15,1,0.677,1,1,3,1,0,1,0
15,1,0.816,1,0,4,0,1,1,0
15,1,0.728,1,0,5,0,1,1,1
15,1,0.786,1,0,6,0,1,1,1
15,1,0.717,1,0,7,0,1,1,1
15,1,0.854,1,0,8,0,1,1,1
15,1,0.899,1,1,9,1,0,0,1
15,1,0.739,1,1,10,1,0,0,1
15,3,0.563,1,1,4,1,0,1,0
15,3,0.546,1,1,5,1,0,1,1
15,3,0.823,1,0,6,0,1,1,1
15,3,0.884,0,0,7,1,0,1,1
15,3,0.865,1,0,8,0,1,1,1
15,3,1.113,0,1,9,0,1,0,1
15,3,1.296,0,0,10,1,0,0,1
15,1,0.862,1,1,3,1,0,1,0
15,1,0.657,1,0,4,0,1,1,0
15,1,0.753,1,0,5,0,1,1,1
15,1,0.937,1,1,6,1,0,1,1
15,1,0.709,1,1,7,1,0,1,1
15,1,0.607,1,0,8,0,1,1,1
15,1,0.732,1,0,9,0,1,0,1
15,1,0.812,1,1,10,1,0,0,1
15,3,0.764,0,0,4,1,0,1,0
15,3,0.828,0,0,5,1,0,1,1
15,3,1.114,1,0,6,0,1,1,1
15,3,0.625,0,1,7,0,1,1,1
15,3,1.082,0,1,8,0,1,1,1
15,3,0.681,0,0,9,1,0,0,1
15,2,0.804,1,0,3,0,1,1,0
15,2,0.776,1,1,4,1,0,1,0
15,2,0.876,1,1,5,1,0,1,1
15,2,0.664,1,0,6,0,1,1,1
15,2,1.143,0,0,7,1,0,1,1
15,2,0.797,1,0,8,0,1,1,1
15,2,0.873,1,0,9,0,1,0,1
15,2,0.541,1,1,10,1,0,0,1
15,1,0.781,1,0,2,0,1,1,0
15,1,0.647,1,1,3,1,0,1,0
15,1,0.728,1,0,4,0,1,1,0
15,1,0.574,1,1,5,1,0,1,1
15,1,0.745,1,0,6,0,1,1,1
15,1,0.544,1,1,7,1,0,1,1
15,1,0.67,1,0,8,0,1,1,1
15,1,0.581,1,1,9,1,0,0,1
15,1,0.626,1,0,10,0,1,0,1
15,3,0.74,0,0,4,1,0,1,0
15,3,1.038,1,0,5,0,1,1,1
15,3,0.479,1,1,6,1,0,1,1
15,3,0.981,1,0,7,0,1,1,1
15,3,0.922,1,0,8,0,1,1,1
15,3,0.879,1,1,9,1,0,0,1
15,3,1.127,0,0,10,1,0,0,1
15,2,0.574,1,1,3,1,0,1,0
15,2,0.708,1,0,4,0,1,1,0
15,2,0.862,0,0,5,1,0,1,1
15,2,0.84,1,0,6,0,1,1,1
15,2,0.736,1,1,7,1,0,1,1
15,2,0.867,1,0,8,0,1,1,1
15,2,1.175,1,1,9,1,0,0,1
15,2,1.006,1,0,10,0,1,0,1
15,1,1.092,1,1,2,1,0,1,0
15,1,0.766,1,0,3,0,1,1,0
15,1,0.671,1,1,4,1,0,1,0
15,1,0.671,1,0,5,0,1,1,1
15,1,0.674,1,0,6,0,1,1,1
15,1,0.612,1,1,7,1,0,1,1
15,1,0.746,1,0,8,0,1,1,1
15,1,0.787,1,0,9,0,1,0,1
15,1,0.635,1,1,10,1,0,0,1
15,3,0.774,1,0,4,0,1,1,0
15,3,0.65,1,0,5,0,1,1,1
15,3,0.493,1,1,6,1,0,1,1
15,3,1.417,0,0,7,1,0,1,1
15,3,1.113,0,0,8,1,0,1,1
15,3,0.871,1,1,9,1,0,0,1
15,3,0.822,1,0,10,0,0,0,1
15,1,0.707,1,1,2,1,0,1,0
15,1,0.673,1,0,3,0,1,1,0
15,1,0.705,1,1,4,1,0,1,0
15,1,0.719,1,0,5,0,1,1,1
15,1,0.602,1,1,6,1,0,1,1
15,1,0.872,1,0,7,0,1,1,1
15,1,0.981,1,0,8,0,1,1,1
15,1,0.826,1,0,9,0,1,0,1
15,1,0.612,1,1,10,1,0,0,1
15,3,0.599,1,1,4,1,0,1,0
15,3,0.818,1,0,5,0,1,1,1
15,3,1.105,1,0,6,0,1,1,1
15,3,0.593,1,1,7,1,0,1,1
15,3,0.685,0,0,8,1,0,1,1
15,3,1.001,1,0,9,0,1,0,1
15,3,1.187,1,1,10,1,0,0,1
15,2,0.698,1,1,3,1,0,1,0
15,2,0.709,1,0,4,0,1,1,0
15,2,0.911,1,0,5,0,1,1,1
15,2,0.796,1,1,6,1,0,1,1
15,2,0.971,1,0,7,0,1,1,1
15,2,1.193,1,0,8,0,1,1,1
15,2,0.902,1,1,9,1,0,0,1
15,2,0.69,1,1,10,1,0,0,1
15,1,0.663,1,0,2,0,1,1,0
15,1,1.062,1,1,3,1,0,1,0
15,1,0.943,1,0,4,0,1,1,0
15,1,0.66,1,1,5,1,0,1,1
15,1,0.835,1,0,6,0,1,1,1
15,1,0.536,1,1,7,1,0,1,1
15,1,0.826,1,0,8,0,1,1,1
15,1,0.673,1,0,9,0,1,0,1
15,1,0.749,1,1,10,1,0,0,1
15,2,1.158,0,0,3,1,0,1,0
15,2,0.652,0,1,4,0,1,1,0
15,2,0.654,1,0,5,0,1,1,1
15,2,0.665,1,1,6,1,0,1,1
15,2,1,1,1,7,1,0,1,1
15,2,0.663,1,0,8,0,1,1,1
15,2,1.064,1,0,9,0,1,0,1
15,2,0.53,1,1,10,1,0,0,1
16,1,1.073,1,1,2,1,0,1,0
16,1,1.086,1,0,3,0,1,1,0
16,1,1.132,1,1,4,1,0,1,0
16,1,1.231,1,0,5,0,1,1,1
16,1,0.973,1,0,6,0,1,1,1
16,1,1.152,1,1,7,1,0,1,1
16,1,1.015,1,0,8,0,1,1,1
16,1,0.961,1,0,9,0,1,0,1
16,1,1.15,1,1,10,1,0,0,1
16,2,0.949,0,0,3,1,0,1,0
16,2,0.587,1,1,4,1,0,1,0
16,2,0.659,1,0,5,0,1,1,1
16,2,0.762,1,0,6,0,1,1,1
16,2,0.95,1,1,7,1,0,1,1
16,2,1.031,1,0,8,0,1,1,1
16,2,1.269,1,1,9,1,0,0,1
16,2,1.136,1,0,10,0,1,0,1
16,3,0.44,0,0,4,1,0,1,0
16,3,1.043,0,0,5,1,0,1,1
16,3,1.277,1,0,6,0,1,1,1
16,3,0.868,1,1,10,1,0,0,1
16,2,0.957,1,0,3,0,1,1,0
16,2,1.134,1,1,4,1,0,1,0
16,2,1.343,1,1,5,1,0,1,1
16,2,0.889,1,0,6,0,1,1,1
16,2,0.805,1,1,7,1,0,1,1
16,2,0.963,1,0,8,0,1,1,1
16,2,1.14,1,0,9,0,1,0,1
16,2,1.169,1,1,10,1,0,0,1
16,1,0.497,0,0,2,1,0,1,0
16,1,0.451,1,1,4,1,0,1,0
16,1,0.701,1,0,5,0,1,1,1
16,1,1.186,0,0,6,1,0,1,1
16,1,0.742,0,1,7,0,1,1,1
16,1,1.069,0,1,8,0,1,1,1
16,1,1.406,1,0,9,0,1,0,1
16,1,0.914,1,1,10,1,0,0,1
16,3,0.858,1,1,4,1,0,1,0
16,3,0.98,1,0,5,0,1,1,1
16,3,0.95,1,0,6,0,1,1,1
16,3,0.932,1,1,7,1,0,1,1
16,3,1.213,0,0,8,1,0,1,1
16,3,1.407,1,0,9,0,1,0,1
16,3,1.318,0,0,10,1,0,0,1
16,1,0.997,1,0,2,0,1,1,0
16,1,0.808,1,1,3,1,0,1,0
16,1,0.872,1,0,4,0,1,1,0
16,1,0.78,1,0,5,0,1,1,1
16,1,0.823,1,1,6,1,0,1,1
16,1,0.849,1,1,7,1,0,1,1
16,1,0.788,1,0,8,0,1,1,1
16,1,0.866,1,0,9,0,1,0,1
16,1,0.789,1,1,10,1,0,0,1
16,3,0.691,1,1,4,1,0,1,0
16,3,0.923,1,1,5,1,0,1,1
16,3,0.85,1,0,6,0,1,1,1
16,3,1.316,1,1,7,1,0,1,1
16,3,1.373,1,0,8,0,1,1,1
16,3,1.142,1,0,9,0,1,0,1
16,3,0.972,1,1,10,1,0,0,1
16,2,0.737,1,1,3,1,0,1,0
16,2,0.831,1,0,4,0,1,1,0
16,2,0.878,1,0,5,0,1,1,1
16,2,0.923,1,1,6,1,0,1,1
16,2,0.862,1,0,7,0,1,1,1
16,2,1.187,1,0,8,0,1,1,1
16,2,1.109,1,1,9,1,0,0,1
16,2,1.186,0,0,10,1,0,0,1
16,2,0.618,1,1,3,1,0,1,0
16,2,0.79,1,0,4,0,1,1,0
16,2,0.805,1,1,5,1,0,1,1
16,2,0.804,1,0,6,0,1,1,1
16,2,0.761,1,1,7,1,0,1,1
16,2,0.673,1,0,8,0,1,1,1
16,2,0.68,1,0,9,0,1,0,1
16,2,0.591,1,1,10,1,0,0,1
16,3,0.574,1,1,4,1,0,1,0
16,3,0.821,1,0,5,0,1,1,1
16,3,1.451,1,1,6,1,0,1,1
16,3,0.848,1,0,7,0,1,1,1
16,3,1.278,1,0,8,0,1,1,1
16,3,0.946,1,1,9,1,0,0,1
16,3,1.455,0,0,10,1,0,0,1
16,2,0.504,1,1,3,1,0,1,0
16,2,0.61,1,0,4,0,1,1,0
16,2,0.851,1,1,6,1,0,1,1
16,2,1.278,0,0,7,1,0,1,1
16,2,0.845,1,0,8,0,1,1,1
16,2,0.681,1,0,9,0,1,0,1
16,2,0.665,1,1,10,1,0,0,1
16,1,0.768,1,1,2,1,0,1,0
16,1,0.729,1,0,3,0,1,1,0
16,1,0.98,1,1,4,1,0,1,0
16,1,1.054,1,0,5,0,1,1,1
16,1,0.946,1,0,6,0,1,1,1
16,1,1.159,1,0,7,0,1,1,1
16,1,0.957,1,1,8,1,0,1,1
16,1,0.745,1,0,9,0,1,0,1
16,1,0.616,1,1,10,1,0,0,1
16,3,0.688,1,0,4,0,1,1,0
16,3,1.233,0,1,5,0,1,1,1
16,3,1.172,1,1,6,1,0,1,1
16,3,0.885,0,0,7,1,0,1,1
16,3,1.128,0,0,9,1,0,0,1
16,3,1.064,0,1,10,0,0,0,1
16,1,1.114,1,0,2,0,1,1,0
16,1,1.042,1,1,3,1,0,1,0
16,1,0.96,1,0,4,0,1,1,0
16,1,0.974,1,1,5,1,0,1,1
16,1,1.03,1,0,6,0,1,1,1
16,1,0.879,1,1,7,1,0,1,1
16,1,1.034,0,1,8,0,1,1,1
16,1,0.661,1,0,9,0,1,0,1
16,1,0.695,0,0,10,1,0,0,1
16,3,0.807,1,0,4,0,1,1,0
16,3,1.13,1,1,5,1,0,1,1
16,3,1.028,1,1,6,1,0,1,1
16,3,1.009,1,1,7,1,0,1,1
16,3,0.872,0,1,9,0,1,0,1
16,3,1.461,0,0,10,1,0,0,1
16,2,0.95,1,0,3,0,1,1,0
16,2,1.001,1,0,4,0,1,1,0
16,2,1.018,1,1,5,1,0,1,1
16,2,1.162,1,1,6,1,0,1,1
16,2,0.879,0,0,7,1,0,1,1
16,2,1.121,0,1,8,0,1,1,1
16,2,1.261,1,0,9,0,1,0,1
16,2,0.758,1,1,10,1,0,0,1
16,1,0.952,1,1,2,1,0,1,0
16,1,0.965,1,1,3,1,0,1,0
16,1,0.754,1,0,4,0,1,1,0
16,1,0.86,1,0,5,0,1,1,1
16,1,0.853,1,0,6,0,1,1,1
16,1,0.751,1,0,7,0,1,1,1
16,1,0.955,1,0,8,0,1,1,1
16,1,0.514,1,1,9,1,0,0,1
16,1,0.548,1,1,10,1,0,0,1
16,3,0.878,1,0,4,0,1,1,0
16,3,1.246,1,1,5,1,0,1,1
16,3,0.981,1,1,6,1,0,1,1
16,3,1.091,1,0,7,0,1,1,1
16,3,1.164,1,1,8,1,0,1,1
16,3,1.202,0,0,9,1,0,0,1
16,3,0.764,1,0,10,0,1,0,1
16,2,0.656,1,1,3,1,0,1,0
16,2,0.843,0,0,4,1,0,1,0
16,2,1.034,1,0,5,0,1,1,1
16,2,1.422,1,0,6,0,1,1,1
16,2,0.759,1,1,7,1,0,1,1
16,2,0.883,1,0,8,0,1,1,1
16,2,1.346,1,1,9,1,0,0,1
16,2,0.846,1,0,10,0,1,0,1
16,1,0.785,1,0,2,0,1,1,0
16,1,0.966,1,1,3,1,0,1,0
16,1,0.899,1,0,4,0,1,1,0
16,1,0.973,1,1,5,1,0,1,1
16,1,0.949,1,0,6,0,1,1,1
16,1,0.599,1,1,7,1,0,1,1
16,1,0.752,1,0,8,0,1,1,1
16,1,0.544,1,1,9,1,0,0,1
16,1,0.73,1,0,10,0,1,0,1
16,3,0.583,1,1,4,1,0,1,0
16,3,0.743,1,1,5,1,0,1,1
16,3,0.644,1,0,6,0,1,1,1
16,3,1.251,1,1,7,1,0,1,1
16,3,0.559,1,0,9,0,0,0,1
16,3,0.552,0,1,10,0,1,0,1
16,1,0.653,1,1,2,1,0,1,0
16,1,0.835,1,1,3,1,0,1,0
16,1,0.822,1,0,4,0,1,1,0
16,1,0.905,1,1,5,1,0,1,1
16,1,0.815,1,0,6,0,1,1,1
16,1,1.139,1,0,7,0,1,1,1
16,1,0.961,1,0,8,0,1,1,1
16,1,0.772,1,1,9,1,0,0,1
16,1,0.702,1,0,10,0,1,0,1
16,3,1.248,1,0,5,0,1,1,1
16,3,0.807,1,1,6,1,0,1,1
16,3,0.91,1,0,7,0,1,1,1
16,3,1.469,1,1,9,1,0,0,1
16,3,0.962,0,0,10,1,0,0,1
16,2,0.698,1,0,4,0,1,1,0
16,2,0.834,1,1,5,1,0,1,1
16,2,0.798,1,0,6,0,1,1,1
16,2,0.597,0,1,7,0,1,1,1
16,2,1.142,1,0,8,0,1,1,1
16,2,0.912,1,1,10,1,0,0,1
16,1,0.737,1,0,2,0,1,1,0
16,1,0.505,1,1,3,1,0,1,0
16,1,0.806,1,1,4,1,0,1,0
16,1,0.678,1,0,5,0,1,1,1
16,1,0.8,1,0,6,0,1,1,1
16,1,0.472,1,1,7,1,0,1,1
16,1,0.678,1,0,8,0,1,1,1
16,1,0.674,1,1,9,1,0,0,1
16,1,0.718,1,0,10,0,1,0,1
16,2,0.829,1,1,3,1,0,1,0
16,2,0.746,1,0,4,0,1,1,0
16,2,0.97,1,1,5,1,0,1,1
16,2,1.053,1,0,6,0,1,1,1
16,2,0.89,1,1,7,1,0,1,1
16,2,1.47,0,0,9,1,0,0,1
16,2,1.025,1,0,10,0,1,0,1
17,2,1.185,1,0,4,0,1,1,0
17,2,0.914,1,1,5,1,0,1,1
17,2,1.329,1,0,6,0,1,1,1
17,2,0.927,1,1,7,1,0,1,1
17,2,0.657,1,0,8,0,1,1,1
17,2,0.875,0,1,9,0,1,0,1
17,2,1.042,1,1,10,1,0,0,1
17,3,1.089,0,0,4,1,0,1,0
17,3,0.858,1,0,5,0,1,1,1
17,3,0.547,1,1,6,1,0,1,1
17,3,1.112,1,0,7,0,1,1,1
17,3,0.535,0,1,8,0,1,1,1
17,3,0.809,1,1,9,1,0,0,1
17,3,1.046,1,1,10,1,0,0,1
17,2,0.571,1,1,3,1,0,1,0
17,2,0.834,1,0,4,0,1,1,0
17,2,0.724,1,0,5,0,1,1,1
17,2,1.083,0,0,6,1,0,1,1
17,2,1.316,1,0,7,0,1,1,1
17,2,0.722,0,1,8,0,1,1,1
17,2,0.801,1,1,9,1,0,0,1
17,2,1.183,1,1,10,1,0,0,1
17,1,0.767,1,0,2,0,1,1,0
17,1,0.91,1,1,3,1,0,1,0
17,1,0.899,1,0,4,0,1,1,0
17,1,1.162,1,1,5,1,0,1,1
17,1,0.869,1,0,6,0,1,1,1
17,1,0.754,1,1,7,1,0,1,1
17,1,0.969,1,0,8,0,1,1,1
17,1,1.012,1,0,9,0,1,0,1
17,1,0.69,1,1,10,1,0,0,1
17,3,0.974,1,0,4,0,1,1,0
17,3,0.638,1,1,5,1,0,1,1
17,3,0.886,1,1,6,1,0,1,1
17,3,1.189,0,0,7,1,0,1,1
17,3,1.025,1,0,9,0,1,0,1
17,3,0.783,1,1,10,1,0,0,1
17,1,0.71,1,0,2,0,1,1,0
17,1,0.607,1,1,3,1,0,1,0
17,1,0.722,1,1,4,1,0,1,0
17,1,0.918,1,0,5,0,1,1,1
17,1,1.03,1,0,6,0,1,1,1
17,1,0.817,1,1,7,1,0,1,1
17,1,1.064,1,0,8,0,1,1,1
17,1,0.638,1,1,9,1,0,0,1
17,1,0.851,1,0,10,0,1,0,1
17,3,0.975,0,0,4,1,0,1,0
17,3,0.623,1,1,5,1,0,1,1
17,3,0.895,1,0,6,0,1,1,1
17,3,0.912,1,1,7,1,0,1,1
17,3,1.447,1,1,8,1,0,1,1
17,3,0.716,0,1,9,0,0,0,1
17,3,0.594,1,0,10,0,1,0,1
17,2,1.299,0,0,3,1,0,1,0
17,2,0.891,1,0,4,0,1,1,0
17,2,0.669,1,1,6,1,0,1,1
17,2,0.629,1,1,7,1,0,1,1
17,2,1.034,1,0,8,0,1,1,1
17,2,1.264,1,0,9,0,1,0,1
17,2,0.706,1,1,10,1,0,0,1
17,2,0.758,1,1,3,1,0,1,0
17,2,1.178,0,0,4,1,0,1,0
17,2,0.999,0,1,5,0,1,1,1
17,2,0.658,1,0,6,0,1,1,1
17,2,1.019,1,1,7,1,0,1,1
17,2,0.696,1,0,8,0,1,1,1
17,2,1.244,1,1,9,1,0,0,1
17,2,0.89,1,0,10,0,1,0,1
17,3,0.987,1,0,4,0,1,1,0
17,3,0.593,1,1,5,1,0,1,1
17,3,1.258,1,1,6,1,0,1,1
17,3,0.646,1,0,7,0,1,1,1
17,3,1.153,1,1,8,1,0,1,1
17,3,0.99,1,0,10,0,1,0,1
17,2,0.762,1,0,3,0,1,1,0
17,2,0.878,1,0,4,0,1,1,0
17,2,0.836,1,1,5,1,0,1,1
17,2,0.836,1,1,6,1,0,1,1
17,2,0.901,1,1,7,1,0,1,1
17,2,0.846,1,0,8,0,1,1,1
17,2,1.213,1,0,9,0,1,0,1
17,2,0.941,1,1,10,1,0,0,1
17,1,0.514,0,0,2,1,0,1,0
17,1,0.855,1,0,3,0,1,1,0
17,1,1.45,1,1,4,1,0,1,0
17,1,0.806,1,0,5,0,1,1,1
17,1,0.916,1,1,6,1,0,1,1
17,1,0.636,1,0,7,0,1,1,1
17,1,0.97,1,0,8,0,1,1,1
17,1,1.024,0,1,9,0,1,0,1
17,1,0.694,1,1,10,1,0,0,1
17,3,1.129,1,1,4,1,0,1,0
17,3,0.844,1,0,5,0,1,1,1
17,3,0.842,1,0,6,0,1,1,1
17,3,1.092,1,1,7,1,0,1,1
17,3,0.818,0,0,8,1,0,1,1
17,3,0.862,1,0,9,0,1,0,1
17,3,0.943,1,1,10,1,0,0,1
17,1,0.629,1,0,2,0,1,1,0
17,1,0.865,1,0,4,0,1,1,0
17,1,0.816,1,1,5,1,0,1,1
17,1,0.763,1,0,6,0,1,1,1
17,1,0.824,1,1,7,1,0,1,1
17,1,0.892,1,0,8,0,1,1,1
17,1,0.97,1,1,9,1,0,0,1
17,1,0.773,1,0,10,0,1,0,1
17,3,1.088,1,1,4,1,0,1,0
17,3,0.983,0,0,5,1,0,1,1
17,3,0.967,0,1,6,0,1,1,1
17,3,1.085,1,0,7,0,1,1,1
17,3,1.343,1,0,8,0,1,1,1
17,3,0.959,1,1,9,1,0,0,1
17,3,1.146,0,0,10,1,0,0,1
17,2,0.757,1,1,3,1,0,1,0
17,2,0.71,1,0,4,0,1,1,0
17,2,1.123,1,1,5,1,0,1,1
17,2,0.79,1,0,6,0,1,1,1
17,2,1.13,1,0,7,0,1,1,1
17,2,1.44,1,0,8,0,1,1,1
17,2,0.733,1,1,9,1,0,0,1
17,2,1.163,1,1,10,1,0,0,1
17,1,1.269,0,0,2,1,0,1,0
17,1,0.941,1,0,3,0,1,1,0
17,1,0.585,1,1,4,1,0,1,0
17,1,0.913,1,0,5,0,1,1,1
17,1,0.991,1,0,6,0,1,1,1
17,1,1.049,1,0,7,0,1,1,1
17,1,0.839,1,1,8,1,0,1,1
17,1,1.357,1,0,9,0,1,0,1
17,1,0.713,1,1,10,1,0,0,1
17,3,0.773,1,0,4,0,1,1,0
17,3,0.895,0,1,5,0,1,1,1
17,3,1.003,0,0,6,1,0,1,1
17,3,0.966,1,1,7,1,0,1,1
17,3,0.936,1,1,8,1,0,1,1
17,3,0.722,0,1,10,0,0,0,1
17,2,1.263,1,1,3,1,0,1,0
17,2,0.741,1,0,4,0,1,1,0
17,2,0.875,1,1,5,1,0,1,1
17,2,0.796,1,0,6,0,1,1,1
17,2,0.893,1,1,7,1,0,1,1
17,2,0.629,1,0,8,0,1,1,1
17,2,0.931,1,1,9,1,0,0,1
17,2,0.712,1,0,10,0,1,0,1
17,1,0.749,1,1,2,1,0,1,0
17,1,0.858,1,0,3,0,1,1,0
17,1,0.544,1,1,4,1,0,1,0
17,1,0.572,1,0,5,0,1,1,1
17,1,1.215,1,0,6,0,1,1,1
17,1,0.797,1,1,7,1,0,1,1
17,1,0.733,1,0,8,0,1,1,1
17,1,0.485,0,1,9,0,1,0,1
17,1,1.148,1,1,10,1,0,0,1
17,3,1.293,1,1,4,1,0,1,0
17,3,1.403,0,0,5,1,0,1,1
17,3,0.944,1,0,6,0,1,1,1
17,3,0.884,1,1,7,1,0,1,1
17,3,0.825,1,0,8,0,1,1,1
17,3,0.967,1,0,9,0,1,0,1
17,3,0.971,1,1,10,1,0,0,1
17,1,0.821,1,0,2,0,1,1,0
17,1,0.842,1,1,3,1,0,1,0
17,1,0.818,1,0,4,0,1,1,0
17,1,0.871,1,0,5,0,1,1,1
17,1,0.922,1,1,6,1,0,1,1
17,1,0.982,1,1,7,1,0,1,1
17,1,1.349,0,1,8,0,1,1,1
17,1,1.425,1,0,9,0,1,0,1
17,1,0.891,1,1,10,1,0,0,1
17,3,0.929,1,0,4,0,1,1,0
17,3,0.947,1,0,5,0,1,1,1
17,3,1.073,0,0,6,1,0,1,1
17,3,1.007,1,0,7,0,1,1,1
17,3,0.762,1,1,9,1,0,0,1
17,3,0.954,1,1,10,1,0,0,1
17,2,0.627,1,0,3,0,1,1,0
17,2,0.623,1,1,4,1,0,1,0
17,2,1.078,1,1,5,1,0,1,1
17,2,1.106,1,0,6,0,1,1,1
17,2,0.855,1,1,7,1,0,1,1
17,2,0.823,1,0,8,0,1,1,1
17,2,1.137,1,0,9,0,1,0,1
17,2,0.724,1,1,10,1,0,0,1
17,1,0.512,0,0,2,1,0,1,0
17,1,0.682,0,0,3,1,0,1,0
17,1,0.996,1,0,4,0,1,1,0
17,1,0.822,1,1,5,1,0,1,1
17,1,0.923,1,0,6,0,1,1,1
17,1,0.801,1,0,7,0,1,1,1
17,1,1.149,1,0,8,0,1,1,1
17,1,0.871,1,1,9,1,0,0,1
17,1,0.994,0,1,10,0,1,0,1
17,2,1.084,0,0,3,1,0,1,0
17,2,0.786,1,1,4,1,0,1,0
17,2,0.764,1,0,5,0,1,1,1
17,2,0.937,1,0,6,0,1,1,1
17,2,1.307,1,1,7,1,0,1,1
17,2,0.826,1,0,8,0,1,1,1
17,2,0.776,1,1,9,1,0,0,1
17,2,1.046,0,1,10,0,1,0,1
18,1,0.794,0,0,2,1,0,1,0
18,1,1.011,1,1,3,1,0,1,0
18,1,1.201,1,0,4,0,1,1,0
18,1,0.888,1,1,5,1,0,1,1
18,1,0.815,1,0,6,0,1,1,1
18,1,0.793,1,0,7,0,1,1,1
18,1,0.728,1,0,8,0,1,1,1
18,1,0.646,1,1,9,1,0,0,1
18,1,0.859,1,0,10,0,1,0,1
18,2,0.89,1,0,3,0,1,1,0
18,2,0.666,1,0,4,0,1,1,0
18,2,0.934,0,0,5,1,0,1,1
18,2,0.538,1,1,6,1,0,1,1
18,2,0.928,1,1,7,1,0,1,1
18,2,0.913,1,0,8,0,1,1,1
18,2,0.811,1,0,9,0,1,0,1
18,2,0.624,1,1,10,1,0,0,1
18,3,0.48,1,1,4,1,0,1,0
18,3,0.728,1,0,5,0,1,1,1
18,3,0.81,1,1,6,1,0,1,1
18,3,0.936,1,0,7,0,1,1,1
18,3,0.827,1,0,8,0,1,1,1
18,3,1.195,0,0,9,1,0,0,1
18,3,1.138,1,1,10,1,0,0,1
18,2,0.743,1,1,3,1,0,1,0
18,2,0.849,1,0,4,0,1,1,0
18,2,1.194,0,0,5,1,0,1,1
18,2,1.289,1,0,6,0,1,1,1
18,2,1.417,1,1,7,1,0,1,1
18,2,1.339,1,0,8,0,1,1,1
18,2,0.893,1,0,10,0,1,0,1
18,1,0.866,1,1,2,1,0,1,0
18,1,0.526,1,1,3,1,0,1,0
18,1,0.469,1,0,4,0,1,1,0
18,1,0.741,0,1,5,0,1,1,1
18,1,0.957,1,0,6,0,1,1,1
18,1,0.767,1,0,7,0,1,1,1
18,1,0.893,1,0,8,0,1,1,1
18,1,1.036,0,0,9,1,0,0,1
18,1,0.648,1,1,10,1,0,0,1
18,3,0.75,0,1,4,0,1,1,0
18,3,1.183,1,1,5,1,0,1,1
18,3,0.796,1,1,6,1,0,1,1
18,3,1.303,0,0,7,1,0,1,1
18,3,1.025,1,0,8,0,1,1,1
18,3,0.877,1,0,9,0,1,0,1
18,3,1.22,0,0,10,1,0,0,1
18,1,1.083,1,0,2,0,1,1,0
18,1,1.388,1,1,3,1,0,1,0
18,1,0.695,1,0,4,0,1,1,0
18,1,0.643,1,0,5,0,1,1,1
18,1,1.001,1,1,6,1,0,1,1
18,1,0.757,1,1,7,1,0,1,1
18,1,0.657,1,0,8,0,1,1,1
18,1,0.83,1,0,9,0,1,0,1
18,1,0.743,1,1,10,1,0,0,1
18,3,0.842,1,0,4,0,1,1,0
18,3,0.647,1,0,5,0,1,1,1
18,3,0.616,1,1,6,1,0,1,1
18,3,0.983,0,0,7,1,0,1,1
18,3,0.554,1,1,8,1,0,1,1
18,3,1.147,0,0,9,1,0,0,1
18,3,1.103,1,0,10,0,0,0,1
18,2,1.046,1,1,3,1,0,1,0
18,2,0.501,1,1,4,1,0,1,0
18,2,0.799,1,0,5,0,1,1,1
18,2,0.684,1,0,6,0,1,1,1
18,2,0.476,1,1,7,1,0,1,1
18,2,0.642,1,0,8,0,1,1,1
18,2,0.879,0,0,9,1,0,0,1
18,2,1.033,1,0,10,0,1,0,1
18,2,0.591,1,1,3,1,0,1,0
18,2,0.625,1,0,4,0,1,1,0
18,2,0.61,1,0,5,0,1,1,1
18,2,0.574,1,1,6,1,0,1,1
18,2,0.67,1,1,7,1,0,1,1
18,2,0.708,1,0,8,0,1,1,1
18,2,0.707,1,0,9,0,1,0,1
18,2,0.455,1,1,10,1,0,0,1
18,3,0.681,1,1,4,1,0,1,0
18,3,0.513,1,1,5,1,0,1,1
18,3,0.702,1,0,6,0,1,1,1
18,3,0.657,1,0,7,0,1,1,1
18,3,0.695,1,0,8,0,1,1,1
18,3,0.456,1,1,9,1,0,0,1
18,3,0.495,1,1,10,1,0,0,1
18,2,0.812,1,1,3,1,0,1,0
18,2,0.62,1,0,4,0,1,1,0
18,2,0.616,1,0,5,0,1,1,1
18,2,1.065,0,0,6,1,0,1,1
18,2,0.786,1,0,7,0,1,1,1
18,2,1.082,1,0,8,0,1,1,1
18,2,1.069,1,1,9,1,0,0,1
18,2,1.003,1,1,10,1,0,0,1
18,1,0.902,1,0,2,0,1,1,0
18,1,0.789,1,1,3,1,0,1,0
18,1,0.972,1,1,4,1,0,1,0
18,1,1.043,1,0,5,0,1,1,1
18,1,0.737,1,0,6,0,1,1,1
18,1,0.547,1,1,7,1,0,1,1
18,1,0.685,1,0,8,0,1,1,1
18,1,0.854,1,1,9,1,0,0,1
18,1,0.667,1,0,10,0,1,0,1
18,3,1.027,1,1,4,1,0,1,0
18,3,0.586,1,0,5,0,1,1,1
18,3,0.652,1,0,6,0,1,1,1
18,3,1.172,1,1,7,1,0,1,1
18,3,1.154,1,1,8,1,0,1,1
18,3,1.072,1,0,9,0,1,0,1
18,3,0.978,0,0,10,1,0,0,1
18,1,0.881,1,1,2,1,0,1,0
18,1,0.793,1,0,3,0,1,1,0
18,1,0.714,1,1,4,1,0,1,0
18,1,0.623,1,0,5,0,1,1,1
18,1,0.857,1,1,6,1,0,1,1
18,1,0.751,1,0,7,0,1,1,1
18,1,0.969,1,0,8,0,1,1,1
18,1,0.683,1,0,9,0,1,0,1
18,1,0.691,1,1,10,1,0,0,1
18,3,0.753,1,0,4,0,1,1,0
18,3,0.938,0,0,5,1,0,1,1
18,3,0.883,0,0,6,1,0,1,1
18,3,0.923,1,0,7,0,1,1,1
18,3,0.915,1,1,8,1,0,1,1
18,3,1.132,1,1,9,1,0,0,1
18,3,0.651,1,0,10,0,1,0,1
18,2,0.633,0,1,3,0,1,1,0
18,2,0.982,1,1,4,1,0,1,0
18,2,1.131,1,0,6,0,1,1,1
18,2,1.38,1,1,7,1,0,1,1
18,2,0.915,1,0,8,0,1,1,1
18,2,0.713,1,0,9,0,1,0,1
18,2,0.771,1,1,10,1,0,0,1
18,1,1.069,1,0,2,0,1,1,0
18,1,0.942,1,1,3,1,0,1,0
18,1,0.683,1,0,4,0,1,1,0
18,1,0.886,1,1,5,1,0,1,1
18,1,0.681,1,0,6,0,1,1,1
18,1,0.651,1,1,7,1,0,1,1
18,1,0.591,1,0,8,0,1,1,1
18,1,0.848,1,1,9,1,0,0,1
18,1,0.752,1,0,10,0,1,0,1
18,3,0.865,1,1,4,1,0,1,0
18,3,0.529,1,1,5,1,0,1,1
18,3,0.572,1,0,6,0,1,1,1
18,3,0.939,0,0,7,1,0,1,1
18,3,0.887,0,0,8,1,0,1,1
18,3,0.992,0,1,9,0,0,0,1
18,3,0.832,1,0,10,0,1,0,1
18,2,0.698,1,1,3,1,0,1,0
18,2,0.541,1,0,4,0,1,1,0
18,2,1.149,0,0,5,1,0,1,1
18,2,0.701,1,0,6,0,1,1,1
18,2,1.093,1,0,7,0,1,1,1
18,2,0.767,1,0,8,0,1,1,1
18,2,1.305,0,0,9,1,0,0,1
18,2,0.832,1,1,10,1,0,0,1
18,1,0.784,1,1,2,1,0,1,0
18,1,0.677,1,0,3,0,1,1,0
18,1,0.546,1,1,4,1,0,1,0
18,1,0.762,1,0,5,0,1,1,1
18,1,0.589,1,0,6,0,1,1,1
18,1,0.587,1,0,7,0,1,1,1
18,1,0.541,1,1,8,1,0,1,1
18,1,0.712,1,0,9,0,1,0,1
18,1,0.701,1,1,10,1,0,0,1
18,3,0.531,1,1,4,1,0,1,0
18,3,0.421,1,1,5,1,0,1,1
18,3,0.558,1,0,6,0,1,1,1
18,3,1.133,0,0,7,1,0,1,1
18,3,0.671,1,0,8,0,1,1,1
18,3,0.817,1,0,9,0,1,0,1
18,3,0.824,1,1,10,1,0,0,1
18,1,0.016,0,0,3,1,0,1,0
18,1,0.337,1,0,4,0,1,1,0
18,1,0.865,1,1,5,1,0,1,1
18,1,1.009,1,0,6,0,1,1,1
18,1,0.935,1,1,7,1,0,1,1
18,1,0.602,0,1,8,0,1,1,1
18,1,0.389,1,0,9,0,1,0,1
18,1,0.828,1,1,10,1,0,0,1
18,3,1.132,0,1,4,0,1,1,0
18,3,0.767,1,0,5,0,1,1,1
18,3,0.962,1,1,6,1,0,1,1
18,3,0.707,1,0,7,0,1,1,1
18,3,1.218,0,0,8,1,0,1,1
18,3,1.016,1,1,9,1,0,0,1
18,3,1.181,0,0,10,1,0,0,1
18,2,0.544,1,1,3,1,0,1,0
18,2,0.646,1,0,4,0,1,1,0
18,2,1.167,1,1,5,1,0,1,1
18,2,0.836,1,0,6,0,1,1,1
18,2,1.301,0,0,7,1,0,1,1
18,2,0.772,1,0,8,0,1,1,1
18,2,0.599,1,0,9,0,1,0,1
18,2,1.035,1,1,10,1,0,0,1
18,1,0.495,1,1,2,1,0,1,0
18,1,0.662,1,0,3,0,1,1,0
18,1,0.527,1,1,4,1,0,1,0
18,1,0.6,1,0,5,0,1,1,1
18,1,0.666,1,0,6,0,1,1,1
18,1,0.797,1,1,7,1,0,1,1
18,1,0.614,1,0,8,0,1,1,1
18,1,0.862,1,0,9,0,1,0,1
18,1,0.634,1,1,10,1,0,0,1
18,2,0.716,1,1,3,1,0,1,0
18,2,0.487,1,1,4,1,0,1,0
18,2,0.745,1,0,5,0,1,1,1
18,2,0.534,1,0,6,0,1,1,1
18,2,0.608,1,1,7,1,0,1,1
18,2,0.579,1,0,8,0,1,1,1
18,2,1.088,0,0,9,1,0,0,1
18,2,0.882,1,0,10,0,1,0,1
19,1,1.038,1,0,2,0,1,1,0
19,1,1.415,1,1,3,1,0,1,0
19,1,1.242,1,1,6,1,0,1,1
19,1,0.084,0,1,8,0,1,1,1
19,1,0.468,0,0,10,1,0,0,1
19,2,0.633,1,1,3,1,0,1,0
19,2,0.673,1,0,4,0,1,1,0
19,2,0.525,0,0,5,1,0,1,1
19,2,1.194,1,1,7,1,0,1,1
19,2,0.434,1,0,8,0,1,1,1
19,2,0.737,1,0,9,0,1,0,1
19,2,0.707,1,1,10,1,0,0,1
19,3,1.069,1,0,4,0,1,1,0
19,3,1.113,0,0,6,1,0,1,1
19,3,1.212,0,0,7,1,0,1,1
19,3,1.014,1,1,9,1,0,0,1
19,3,1.088,1,0,10,0,0,0,1
19,2,1.068,1,0,3,0,1,1,0
19,2,1.111,1,1,4,1,0,1,0
19,2,0.334,0,0,5,1,0,1,1
19,2,0.457,1,0,6,0,1,1,1
19,2,0.744,1,1,7,1,0,1,1
19,2,0.157,1,0,8,0,1,1,1
19,2,0.362,1,1,10,1,0,0,1
19,1,1.432,0,1,2,0,1,1,0
19,1,0.865,0,0,3,1,0,1,0
19,1,1.354,1,0,4,0,1,1,0
19,1,0.946,1,1,5,1,0,1,1
19,1,0.457,1,0,6,0,1,1,1
19,1,0.64,1,1,7,1,0,1,1
19,1,0.448,1,0,8,0,1,1,1
19,1,0.797,0,1,9,0,1,0,1
19,1,0.358,0,0,10,1,0,0,1
19,3,1.332,1,0,4,0,1,1,0
19,3,1.147,1,1,5,1,0,1,1
19,3,0.624,0,0,6,1,0,1,1
19,3,0.528,0,0,7,1,0,1,1
19,3,0.599,0,1,8,0,1,1,1
19,3,0.496,1,0,9,0,1,0,1
19,3,0.816,0,0,10,1,0,0,1
19,1,0.812,1,0,2,0,1,1,0
19,1,0.82,1,1,3,1,0,1,0
19,1,0.267,1,0,4,0,1,1,0
19,1,0.391,0,0,5,1,0,1,1
19,1,0.526,1,0,6,0,1,1,1
19,1,0.842,1,1,7,1,0,1,1
19,1,0.888,1,0,8,0,1,1,1
19,1,0.991,1,1,9,1,0,0,1
19,1,0.534,1,0,10,0,1,0,1
19,3,0.716,1,1,4,1,0,1,0
19,3,0.6,1,0,5,0,1,1,1
19,3,1.138,1,1,6,1,0,1,1
19,3,0.365,1,0,7,0,1,1,1
19,3,0.645,1,0,8,0,1,1,1
19,3,0.569,1,1,9,1,0,0,1
19,3,0.362,0,0,10,1,0,0,1
19,2,0.56,1,1,3,1,0,1,0
19,2,0.129,1,0,4,0,1,1,0
19,2,0.71,1,0,6,0,1,1,1
19,2,0.665,0,0,7,1,0,1,1
19,2,0.929,0,1,8,0,1,1,1
19,2,1.307,1,1,9,1,0,0,1
19,2,0.66,1,0,10,0,1,0,1
19,2,0.742,1,1,3,1,0,1,0
19,2,0.606,1,1,4,1,0,1,0
19,2,0.856,1,0,5,0,1,1,1
19,2,0.931,1,0,6,0,1,1,1
19,2,0.571,1,1,7,1,0,1,1
19,2,0.363,1,0,8,0,1,1,1
19,2,0.342,0,0,9,1,0,0,1
